date;time;subject;blocknum;trialnum;trialcode;response;correct;cor2;latency;stimulusnumber1;stimulusitem1
02/12/2023;12:05:00;102;2;2;visAHA;5;0;;6649;15;1PVIP_015_crocodile1_gauss2.5.jpg
02/12/2023;12:05:00;102;3;2;visAHA;3;1;;4331;70;2PVIP_064_bridge_gauss2.5.jpg
02/12/2023;12:05:00;102;3;3;solution_solved_VIS;4;0;;3937;1;Aufgabe im MRT GELýST?         1 = definitiv gelýst      2 = vermutlich gelýst      3 = weiý ich nicht mehr      4 = vermutlich NICHT gelýst      5 = definitiv NICHT gelýst
02/12/2023;12:05:00;102;4;2;visCATCH;6;1;;1876;17;3PVIP_049_seahorse_gauss6.jpg
02/12/2023;12:05:00;102;5;2;visAHA;2;1;;3044;77;2PVIP_071_chair1_gauss3.jpg
02/12/2023;12:05:00;102;5;3;solution_solved_VIS;4;0;;4618;1;Aufgabe im MRT GELýST?         1 = definitiv gelýst      2 = vermutlich gelýst      3 = weiý ich nicht mehr      4 = vermutlich NICHT gelýst      5 = definitiv NICHT gelýst
02/12/2023;12:05:00;102;6;2;visAHA;2;1;;2910;11;1PVIP_011_butterfly2.jpg
02/12/2023;12:05:00;102;6;3;solution_solved_VIS;6;0;;1329;1;Aufgabe im MRT GELýST?         1 = definitiv gelýst      2 = vermutlich gelýst      3 = weiý ich nicht mehr      4 = vermutlich NICHT gelýst      5 = definitiv NICHT gelýst
02/12/2023;12:05:00;102;7;2;visCATCH;3;0;;9226;18;3PVIP_050_sloth_gauss4.jpg
02/12/2023;12:05:00;102;7;3;solution_solved_VIScatch;5;1;;1372;1;Aufgabe im MRT GELýST?         1 = definitiv gelýst      2 = vermutlich gelýst      3 = weiý ich nicht mehr      4 = vermutlich NICHT gelýst      5 = definitiv NICHT gelýst
02/12/2023;12:05:00;102;8;2;visAHA;2;1;;3074;106;2PVIP_101_orange.jpg
02/12/2023;12:05:00;102;8;3;solution_solved_VIS;2;1;;626;1;Aufgabe im MRT GELýST?         1 = definitiv gelýst      2 = vermutlich gelýst      3 = weiý ich nicht mehr      4 = vermutlich NICHT gelýst      5 = definitiv NICHT gelýst
02/12/2023;12:05:00;102;8;4;solution_visAHA;Orange;0;1;22501;1;Bitte tippe Dein (damaliges) Lýsungswort hier ein:
02/12/2023;12:05:00;102;9;2;visCATCH;4;1;;3827;53;3PVIP_024_mole_gauss2.jpg
02/12/2023;12:05:00;102;10;2;visAHA;2;1;;2408;16;1PVIP_016_crone_gauss1.5.jpg
02/12/2023;12:05:00;102;10;3;solution_solved_VIS;4;0;;2478;1;Aufgabe im MRT GELýST?         1 = definitiv gelýst      2 = vermutlich gelýst      3 = weiý ich nicht mehr      4 = vermutlich NICHT gelýst      5 = definitiv NICHT gelýst
02/12/2023;12:05:00;102;11;2;visCATCH;5;1;;4424;4;3PVIP_035_basket_gauss3.jpg
02/12/2023;12:05:00;102;12;2;visAHA;3;1;;3631;116;2PVIP_111_snake3.jpg
02/12/2023;12:05:00;102;12;3;solution_solved_VIS;5;0;;5080;1;Aufgabe im MRT GELýST?         1 = definitiv gelýst      2 = vermutlich gelýst      3 = weiý ich nicht mehr      4 = vermutlich NICHT gelýst      5 = definitiv NICHT gelýst
02/12/2023;12:05:00;102;13;2;visAHA;2;1;;1878;90;2PVIP_085_frog5.jpg
02/12/2023;12:05:00;102;13;3;solution_solved_VIS;2;1;;2713;1;Aufgabe im MRT GELýST?         1 = definitiv gelýst      2 = vermutlich gelýst      3 = weiý ich nicht mehr      4 = vermutlich NICHT gelýst      5 = definitiv NICHT gelýst
02/12/2023;12:05:00;102;13;4;solution_visAHA;Frosch;0;1;3161;1;Bitte tippe Dein (damaliges) Lýsungswort hier ein:
02/12/2023;12:05:00;102;14;2;visCATCH;3;0;;3273;13;3PVIP_044_caterpillar.new_gauss3.jpg
02/12/2023;12:05:00;102;14;3;solution_solved_VIScatch;5;1;;1319;1;Aufgabe im MRT GELýST?         1 = definitiv gelýst      2 = vermutlich gelýst      3 = weiý ich nicht mehr      4 = vermutlich NICHT gelýst      5 = definitiv NICHT gelýst
02/12/2023;12:05:00;102;15;2;visAHA;6;0;;1815;120;2PVIP_115_woman.jpg
02/12/2023;12:05:00;102;16;2;visCATCH;3;0;;7337;40;3PVIP_010_flamingo_gauss3.jpg
02/12/2023;12:05:00;102;16;3;solution_solved_VIScatch;4;1;;2050;1;Aufgabe im MRT GELýST?         1 = definitiv gelýst      2 = vermutlich gelýst      3 = weiý ich nicht mehr      4 = vermutlich NICHT gelýst      5 = definitiv NICHT gelýst
02/12/2023;12:05:00;102;17;2;visAHA;2;1;;6487;43;1PVIP_043_snail.new_gauss2.5.jpg
02/12/2023;12:05:00;102;17;3;solution_solved_VIS;3;1;;1461;1;Aufgabe im MRT GELýST?         1 = definitiv gelýst      2 = vermutlich gelýst      3 = weiý ich nicht mehr      4 = vermutlich NICHT gelýst      5 = definitiv NICHT gelýst
02/12/2023;12:05:00;102;17;4;solution_visAHA;Mensch;0;0;6444;1;Bitte tippe Dein (damaliges) Lýsungswort hier ein:
02/12/2023;12:05:00;102;18;2;visCATCH;5;1;;3051;3;3PVIP_034_axe.new_gauss2.jpg
02/12/2023;12:05:00;102;19;2;visAHA;3;1;;5544;27;1PVIP_027_squirrel.new_gauss4.jpg
02/12/2023;12:05:00;102;19;3;solution_solved_VIS;5;0;;628;1;Aufgabe im MRT GELýST?         1 = definitiv gelýst      2 = vermutlich gelýst      3 = weiý ich nicht mehr      4 = vermutlich NICHT gelýst      5 = definitiv NICHT gelýst
02/12/2023;12:05:00;102;20;2;visCATCH;2;0;;2413;50;3PVIP_021_leaf_gauss5.jpg
02/12/2023;12:05:00;102;20;3;solution_solved_VIScatch;6;1;;326;1;Aufgabe im MRT GELýST?         1 = definitiv gelýst      2 = vermutlich gelýst      3 = weiý ich nicht mehr      4 = vermutlich NICHT gelýst      5 = definitiv NICHT gelýst
02/12/2023;12:05:00;102;21;2;visAHA;2;1;;4457;17;1PVIP_017_deer2_gauss1.jpg
02/12/2023;12:05:00;102;21;3;solution_solved_VIS;2;1;;1529;1;Aufgabe im MRT GELýST?         1 = definitiv gelýst      2 = vermutlich gelýst      3 = weiý ich nicht mehr      4 = vermutlich NICHT gelýst      5 = definitiv NICHT gelýst
02/12/2023;12:05:00;102;21;4;solution_visAHA;Reh;0;;2166;1;Bitte tippe Dein (damaliges) Lýsungswort hier ein:
02/12/2023;12:05:00;102;22;2;visCATCH;2;0;;4231;32;3PVIP_002_cockpit_gauss3.jpg
02/12/2023;12:05:00;102;22;3;solution_solved_VIScatch;3;0;;2031;1;Aufgabe im MRT GELýST?         1 = definitiv gelýst      2 = vermutlich gelýst      3 = weiý ich nicht mehr      4 = vermutlich NICHT gelýst      5 = definitiv NICHT gelýst
02/12/2023;12:05:00;102;22;4;solution_visCATCH;Kino;0;2;5393;1;Bitte tippe Dein (damaliges) Lýsungswort hier ein:
02/12/2023;12:05:00;102;23;2;visAHA;5;0;;4793;49;1PVIP_049_turtle_gauss4.jpg
02/12/2023;12:05:00;102;24;2;visAHA;6;0;;2744;86;2PVIP_080_ear_gauss2.jpg
02/12/2023;12:05:00;102;25;2;visAHA;5;0;;3892;55;1PVIP_082_erdbeere_gauss1.jpg
02/12/2023;12:05:00;102;26;2;visAHA;5;0;;5499;95;2PVIP_090_hawk_gauss4.jpg
02/12/2023;12:05:00;102;27;2;visAHA;6;0;;2244;82;2PVIP_076_computer.new_gauss5.jpg
02/12/2023;12:05:00;102;28;2;visAHA;2;1;;6076;65;2PVIP_059_bear.new_gauss4.jpg
02/12/2023;12:05:00;102;28;3;solution_solved_VIS;5;0;;939;1;Aufgabe im MRT GELýST?         1 = definitiv gelýst      2 = vermutlich gelýst      3 = weiý ich nicht mehr      4 = vermutlich NICHT gelýst      5 = definitiv NICHT gelýst
02/12/2023;12:05:00;102;29;2;visAHA;6;0;;2223;109;2PVIP_104_piano.jpg
02/12/2023;12:05:00;102;30;2;visAHA;3;1;;2882;61;2PVIP_055_affe_gauss4.jpg
02/12/2023;12:05:00;102;30;3;solution_solved_VIS;4;0;;1728;1;Aufgabe im MRT GELýST?         1 = definitiv gelýst      2 = vermutlich gelýst      3 = weiý ich nicht mehr      4 = vermutlich NICHT gelýst      5 = definitiv NICHT gelýst
02/12/2023;12:05:00;102;31;2;visAHA;2;1;;4628;19;1PVIP_019_elephant1_gauss2.jpg
02/12/2023;12:05:00;102;31;3;solution_solved_VIS;6;0;;489;1;Aufgabe im MRT GELýST?         1 = definitiv gelýst      2 = vermutlich gelýst      3 = weiý ich nicht mehr      4 = vermutlich NICHT gelýst      5 = definitiv NICHT gelýst
02/12/2023;12:05:00;102;32;2;visCATCH;6;1;;5304;47;3PVIP_017_iron_gauss3.jpg
02/12/2023;12:05:00;102;33;2;visAHA;3;1;;6837;24;1PVIP_024_hamster2_gauss1.5.jpg
02/12/2023;12:05:00;102;33;3;solution_solved_VIS;4;0;;2908;1;Aufgabe im MRT GELýST?         1 = definitiv gelýst      2 = vermutlich gelýst      3 = weiý ich nicht mehr      4 = vermutlich NICHT gelýst      5 = definitiv NICHT gelýst
02/12/2023;12:05:00;102;34;2;visAHA;5;0;;4870;93;2PVIP_088_gun.jpg
02/12/2023;12:05:00;102;35;2;visCATCH;2;0;;1488;22;3PVIP_054_nashorn_gauss4.jpg
02/12/2023;12:05:00;102;35;3;solution_solved_VIScatch;2;0;;1151;1;Aufgabe im MRT GELýST?         1 = definitiv gelýst      2 = vermutlich gelýst      3 = weiý ich nicht mehr      4 = vermutlich NICHT gelýst      5 = definitiv NICHT gelýst
02/12/2023;12:05:00;102;35;4;solution_visCATCH;Nashorn;0;1;3388;1;Bitte tippe Dein (damaliges) Lýsungswort hier ein:
02/12/2023;12:05:00;102;36;2;visAHA;3;1;;3627;112;2PVIP_107_scorpion_gauss8.jpg
02/12/2023;12:05:00;102;36;3;solution_solved_VIS;5;0;;995;1;Aufgabe im MRT GELýST?         1 = definitiv gelýst      2 = vermutlich gelýst      3 = weiý ich nicht mehr      4 = vermutlich NICHT gelýst      5 = definitiv NICHT gelýst
02/12/2023;12:05:00;102;37;2;visAHA;2;1;;1524;105;2PVIP_100_mirror_gauss4.jpg
02/12/2023;12:05:00;102;37;3;solution_solved_VIS;2;1;;286;1;Aufgabe im MRT GELýST?         1 = definitiv gelýst      2 = vermutlich gelýst      3 = weiý ich nicht mehr      4 = vermutlich NICHT gelýst      5 = definitiv NICHT gelýst
02/12/2023;12:05:00;102;37;4;solution_visAHA;Spiegel;0;1;3897;1;Bitte tippe Dein (damaliges) Lýsungswort hier ein:
02/12/2023;12:05:00;102;38;2;visCATCH;3;0;;4461;49;3PVIP_020_key_gauss3.jpg
02/12/2023;12:05:00;102;38;3;solution_solved_VIScatch;6;1;;325;1;Aufgabe im MRT GELýST?         1 = definitiv gelýst      2 = vermutlich gelýst      3 = weiý ich nicht mehr      4 = vermutlich NICHT gelýst      5 = definitiv NICHT gelýst
02/12/2023;12:05:00;102;39;2;visAHA;3;1;;6147;75;2PVIP_069_cat2.jpg
02/12/2023;12:05:00;102;39;3;solution_solved_VIS;4;0;;403;1;Aufgabe im MRT GELýST?         1 = definitiv gelýst      2 = vermutlich gelýst      3 = weiý ich nicht mehr      4 = vermutlich NICHT gelýst      5 = definitiv NICHT gelýst
02/12/2023;12:05:00;102;40;2;visCATCH;5;1;;2037;48;3PVIP_018_kameleon1_gauss4.jpg
02/12/2023;12:05:00;102;41;2;visAHA;2;1;;5846;76;2PVIP_070_cauliflower.new_gauss3.jpg
02/12/2023;12:05:00;102;41;3;solution_solved_VIS;4;0;;606;1;Aufgabe im MRT GELýST?         1 = definitiv gelýst      2 = vermutlich gelýst      3 = weiý ich nicht mehr      4 = vermutlich NICHT gelýst      5 = definitiv NICHT gelýst
02/12/2023;12:05:00;102;42;2;visAHA;3;1;;2436;81;2PVIP_075_chair3_gauss5.jpg
02/12/2023;12:05:00;102;42;3;solution_solved_VIS;3;1;;274;1;Aufgabe im MRT GELýST?         1 = definitiv gelýst      2 = vermutlich gelýst      3 = weiý ich nicht mehr      4 = vermutlich NICHT gelýst      5 = definitiv NICHT gelýst
02/12/2023;12:05:00;102;42;4;solution_visAHA;Stuhl;0;1;4967;1;Bitte tippe Dein (damaliges) Lýsungswort hier ein:
02/12/2023;12:05:00;102;43;2;visCATCH;5;1;;1834;19;3PVIP_051_soldier_gauss5.jpg
02/12/2023;12:05:00;102;44;2;visAHA;4;0;;4431;58;1PVIP_118_phone_gauss5.jpg
02/12/2023;12:05:00;102;45;2;visCATCH;6;1;;1429;36;3PVIP_006_dart2_gauss6.jpg
02/12/2023;12:05:00;102;46;2;visAHA;3;1;;2193;67;2PVIP_061_boat_gauss3.jpg
02/12/2023;12:05:00;102;46;3;solution_solved_VIS;3;1;;395;1;Aufgabe im MRT GELýST?         1 = definitiv gelýst      2 = vermutlich gelýst      3 = weiý ich nicht mehr      4 = vermutlich NICHT gelýst      5 = definitiv NICHT gelýst
02/12/2023;12:05:00;102;46;4;solution_visAHA;Boot;0;1;2294;1;Bitte tippe Dein (damaliges) Lýsungswort hier ein:
02/12/2023;12:05:00;102;47;2;visCATCH;3;0;;6303;56;3PVIP_027_pangolins_gauss4.jpg
02/12/2023;12:05:00;102;47;3;solution_solved_VIScatch;5;1;;240;1;Aufgabe im MRT GELýST?         1 = definitiv gelýst      2 = vermutlich gelýst      3 = weiý ich nicht mehr      4 = vermutlich NICHT gelýst      5 = definitiv NICHT gelýst
02/12/2023;12:05:00;102;48;2;visAHA;3;1;;7369;63;2PVIP_057_bag.jpg
02/12/2023;12:05:00;102;48;3;solution_solved_VIS;3;1;;457;1;Aufgabe im MRT GELýST?         1 = definitiv gelýst      2 = vermutlich gelýst      3 = weiý ich nicht mehr      4 = vermutlich NICHT gelýst      5 = definitiv NICHT gelýst
02/12/2023;12:05:00;102;48;4;solution_visAHA;Tasche;0;1;4546;1;Bitte tippe Dein (damaliges) Lýsungswort hier ein:
02/12/2023;12:05:00;102;49;2;visAHA;4;0;;9397;96;2PVIP_091_horn.new_gauss3.jpg
02/12/2023;12:05:00;102;50;2;visAHA;3;1;;2623;68;2PVIP_062_book2_gauss3.5.jpg
02/12/2023;12:05:00;102;50;3;solution_solved_VIS;3;1;;742;1;Aufgabe im MRT GELýST?         1 = definitiv gelýst      2 = vermutlich gelýst      3 = weiý ich nicht mehr      4 = vermutlich NICHT gelýst      5 = definitiv NICHT gelýst
02/12/2023;12:05:00;102;50;4;solution_visAHA;Buch;0;1;2329;1;Bitte tippe Dein (damaliges) Lýsungswort hier ein:
02/12/2023;12:05:00;102;51;2;visAHA;5;0;;2783;56;1PVIP_116_otter.jpg
02/12/2023;12:05:00;102;52;2;visCATCH;6;1;;1752;7;3PVIP_038_beaver2_gauss4.jpg
02/12/2023;12:05:00;102;53;2;visAHA;6;0;;1109;38;1PVIP_038_python2_gauss2.jpg
02/12/2023;12:05:00;102;54;2;visAHA;3;1;;2357;35;1PVIP_035_orchid_gauss1.jpg
02/12/2023;12:05:00;102;54;3;solution_solved_VIS;5;0;;404;1;Aufgabe im MRT GELýST?         1 = definitiv gelýst      2 = vermutlich gelýst      3 = weiý ich nicht mehr      4 = vermutlich NICHT gelýst      5 = definitiv NICHT gelýst
02/12/2023;12:05:00;102;55;2;visCATCH;2;0;;6797;39;3PVIP_009_erdmaennchen_gauss2.jpg
02/12/2023;12:05:00;102;55;3;solution_solved_VIScatch;5;1;;868;1;Aufgabe im MRT GELýST?         1 = definitiv gelýst      2 = vermutlich gelýst      3 = weiý ich nicht mehr      4 = vermutlich NICHT gelýst      5 = definitiv NICHT gelýst
02/12/2023;12:05:00;102;56;2;visAHA;6;0;;956;100;2PVIP_095_knob_gauss1.jpg
02/12/2023;12:05:00;102;57;2;visCATCH;5;1;;1857;31;3PVIP_001_cockatoo.new_gauss4.jpg
02/12/2023;12:05:00;102;58;2;visAHA;3;1;;2689;4;1PVIP_004_beetle1_gauss2.5.jpg
02/12/2023;12:05:00;102;58;3;solution_solved_VIS;6;0;;517;1;Aufgabe im MRT GELýST?         1 = definitiv gelýst      2 = vermutlich gelýst      3 = weiý ich nicht mehr      4 = vermutlich NICHT gelýst      5 = definitiv NICHT gelýst
02/12/2023;12:05:00;102;59;2;visAHA;2;1;;1875;66;2PVIP_060_bee2.jpg
02/12/2023;12:05:00;102;59;3;solution_solved_VIS;2;1;;276;1;Aufgabe im MRT GELýST?         1 = definitiv gelýst      2 = vermutlich gelýst      3 = weiý ich nicht mehr      4 = vermutlich NICHT gelýst      5 = definitiv NICHT gelýst
02/12/2023;12:05:00;102;59;4;solution_visAHA;Biene;0;1;3249;1;Bitte tippe Dein (damaliges) Lýsungswort hier ein:
02/12/2023;12:05:00;102;60;2;visCATCH;6;1;;1778;45;3PVIP_015_horse.new_gauss3.jpg
02/12/2023;12:05:00;102;61;2;visAHA;5;0;;4324;31;1PVIP_031_lizard_gauss2.jpg
02/12/2023;12:05:00;102;62;2;visAHA;3;1;;3380;12;1PVIP_012_cabin2.jpg
02/12/2023;12:05:00;102;62;3;solution_solved_VIS;3;1;;334;1;Aufgabe im MRT GELýST?         1 = definitiv gelýst      2 = vermutlich gelýst      3 = weiý ich nicht mehr      4 = vermutlich NICHT gelýst      5 = definitiv NICHT gelýst
02/12/2023;12:05:00;102;62;4;solution_visAHA;Haus;0;2;2471;1;Bitte tippe Dein (damaliges) Lýsungswort hier ein:
02/12/2023;12:05:00;102;63;2;visAHA;3;1;;3897;8;1PVIP_008_boat2.jpg
02/12/2023;12:05:00;102;63;3;solution_solved_VIS;3;1;;331;1;Aufgabe im MRT GELýST?         1 = definitiv gelýst      2 = vermutlich gelýst      3 = weiý ich nicht mehr      4 = vermutlich NICHT gelýst      5 = definitiv NICHT gelýst
02/12/2023;12:05:00;102;63;4;solution_visAHA;Boot;0;1;2558;1;Bitte tippe Dein (damaliges) Lýsungswort hier ein:
02/12/2023;12:05:00;102;64;2;visCATCH;5;1;;1863;34;3PVIP_004_crab.new_gauss2.jpg
02/12/2023;12:05:00;102;65;2;visAHA;3;1;;5535;50;1PVIP_050_typewriter_gauss5.5.jpg
02/12/2023;12:05:00;102;65;3;solution_solved_VIS;6;0;;287;1;Aufgabe im MRT GELýST?         1 = definitiv gelýst      2 = vermutlich gelýst      3 = weiý ich nicht mehr      4 = vermutlich NICHT gelýst      5 = definitiv NICHT gelýst
02/12/2023;12:05:00;102;66;2;visCATCH;6;1;;853;52;3PVIP_023_lobster_gauss6.jpg
02/12/2023;12:05:00;102;67;2;visAHA;5;0;;1647;69;2PVIP_063_brick_gauss5.jpg
02/12/2023;12:05:00;102;68;2;visAHA;2;1;;1252;92;2PVIP_087_goat_gauss5.jpg
02/12/2023;12:05:00;102;68;3;solution_solved_VIS;2;1;;303;1;Aufgabe im MRT GELýST?         1 = definitiv gelýst      2 = vermutlich gelýst      3 = weiý ich nicht mehr      4 = vermutlich NICHT gelýst      5 = definitiv NICHT gelýst
02/12/2023;12:05:00;102;68;4;solution_visAHA;Ziege;0;1;2133;1;Bitte tippe Dein (damaliges) Lýsungswort hier ein:
02/12/2023;12:05:00;102;69;2;visCATCH;6;1;;2072;6;3PVIP_037_beard2_gauss5.jpg
02/12/2023;12:05:00;102;70;2;visAHA;5;0;;2620;7;1PVIP_007_bird3.jpg
02/12/2023;12:05:00;102;71;2;visCATCH;2;0;;3523;37;3PVIP_007_dolphin.new_gauss3.jpg
02/12/2023;12:05:00;102;71;3;solution_solved_VIScatch;3;0;;275;1;Aufgabe im MRT GELýST?         1 = definitiv gelýst      2 = vermutlich gelýst      3 = weiý ich nicht mehr      4 = vermutlich NICHT gelýst      5 = definitiv NICHT gelýst
02/12/2023;12:05:00;102;71;4;solution_visCATCH;Wasser;0;0;2843;1;Bitte tippe Dein (damaliges) Lýsungswort hier ein:
02/12/2023;12:05:00;102;72;2;visAHA;2;1;;1335;102;2PVIP_097_leopard7.jpg
02/12/2023;12:05:00;102;72;3;solution_solved_VIS;2;1;;252;1;Aufgabe im MRT GELýST?         1 = definitiv gelýst      2 = vermutlich gelýst      3 = weiý ich nicht mehr      4 = vermutlich NICHT gelýst      5 = definitiv NICHT gelýst
02/12/2023;12:05:00;102;72;4;solution_visAHA;Jaguar;0;2;4327;1;Bitte tippe Dein (damaliges) Lýsungswort hier ein:
02/12/2023;12:05:00;102;73;2;visCATCH;6;1;;1244;26;3PVIP_058_violin_gauss5.jpg
02/12/2023;12:05:00;102;74;2;visAHA;2;1;;921;6;1PVIP_006_bike.jpg
02/12/2023;12:05:00;102;74;3;solution_solved_VIS;2;1;;273;1;Aufgabe im MRT GELýST?         1 = definitiv gelýst      2 = vermutlich gelýst      3 = weiý ich nicht mehr      4 = vermutlich NICHT gelýst      5 = definitiv NICHT gelýst
02/12/2023;12:05:00;102;74;4;solution_visAHA;Fahrrad;0;1;3704;1;Bitte tippe Dein (damaliges) Lýsungswort hier ein:
02/12/2023;12:05:00;102;75;2;visCATCH;6;1;;954;2;3PVIP_033_auditorium1_gauss4.jpg
02/12/2023;12:05:00;102;76;2;visAHA;4;0;;1479;22;1PVIP_022_frog2_gauss4.jpg
02/12/2023;12:05:00;102;77;2;visCATCH;3;0;;1484;58;3PVIP_029_pig_gauss3.jpg
02/12/2023;12:05:00;102;77;3;solution_solved_VIScatch;5;1;;437;1;Aufgabe im MRT GELýST?         1 = definitiv gelýst      2 = vermutlich gelýst      3 = weiý ich nicht mehr      4 = vermutlich NICHT gelýst      5 = definitiv NICHT gelýst
02/12/2023;12:05:00;102;78;2;visAHA;2;1;;1220;1;1PVIP_001_accordi2_gauss4.jpg
02/12/2023;12:05:00;102;78;3;solution_solved_VIS;3;1;;1388;1;Aufgabe im MRT GELýST?         1 = definitiv gelýst      2 = vermutlich gelýst      3 = weiý ich nicht mehr      4 = vermutlich NICHT gelýst      5 = definitiv NICHT gelýst
02/12/2023;12:05:00;102;78;4;solution_visAHA;Akkordion;0;1;5432;1;Bitte tippe Dein (damaliges) Lýsungswort hier ein:
02/12/2023;12:05:00;102;79;2;visCATCH;2;0;;1380;54;3PVIP_025_moose.new_gauss5.jpg
02/12/2023;12:05:00;102;79;3;solution_solved_VIScatch;2;0;;1664;1;Aufgabe im MRT GELýST?         1 = definitiv gelýst      2 = vermutlich gelýst      3 = weiý ich nicht mehr      4 = vermutlich NICHT gelýst      5 = definitiv NICHT gelýst
02/12/2023;12:05:00;102;79;4;solution_visCATCH;Elch;0;1;4567;1;Bitte tippe Dein (damaliges) Lýsungswort hier ein:
02/12/2023;12:05:00;102;80;2;visAHA;5;0;;2334;33;1PVIP_033_nashorn_gauss2.jpg
02/12/2023;12:05:00;102;81;2;visCATCH;6;1;;976;44;3PVIP_014_gun_gauss3.jpg
02/12/2023;12:05:00;102;82;2;visAHA;2;1;;1644;25;1PVIP_025_hare.new_gauss2.jpg
02/12/2023;12:05:00;102;82;3;solution_solved_VIS;3;1;;798;1;Aufgabe im MRT GELýST?         1 = definitiv gelýst      2 = vermutlich gelýst      3 = weiý ich nicht mehr      4 = vermutlich NICHT gelýst      5 = definitiv NICHT gelýst
02/12/2023;12:05:00;102;82;4;solution_visAHA;Hase;0;1;1885;1;Bitte tippe Dein (damaliges) Lýsungswort hier ein:
02/12/2023;12:05:00;102;83;2;visCATCH;6;1;;1035;43;3PVIP_013_grasshopper.new_gauss3.jpg
02/12/2023;12:05:00;102;84;2;visAHA;5;0;;699;48;1PVIP_048_tomb_gauss3.jpg
02/12/2023;12:05:00;102;85;2;visAHA;6;0;;721;71;2PVIP_065_bulldog5_gauss3.jpg
02/12/2023;12:05:00;102;86;2;visAHA;4;0;;1113;10;1PVIP_010_brain_gauss3.jpg
02/12/2023;12:05:00;102;87;2;visCATCH;4;1;;1447;46;3PVIP_016_indri_gauss3.jpg
02/12/2023;12:05:00;102;88;2;visAHA;5;0;;1953;47;1PVIP_047_toad2_gauss1.jpg
02/12/2023;12:05:00;102;89;2;visAHA;6;0;;954;83;2PVIP_077_cow3.jpg
02/12/2023;12:05:00;102;90;2;visAHA;5;0;;1286;97;2PVIP_092_jet1_gauss5.jpg
02/12/2023;12:05:00;102;91;2;visAHA;3;1;;3634;13;1PVIP_013_cat.new_gauss3.jpg
02/12/2023;12:05:00;102;91;3;solution_solved_VIS;5;0;;1357;1;Aufgabe im MRT GELýST?         1 = definitiv gelýst      2 = vermutlich gelýst      3 = weiý ich nicht mehr      4 = vermutlich NICHT gelýst      5 = definitiv NICHT gelýst
02/12/2023;12:05:00;102;92;2;visCATCH;3;0;;1264;11;3PVIP_042_bread2_gauss2.jpg
02/12/2023;12:05:00;102;92;3;solution_solved_VIScatch;5;1;;597;1;Aufgabe im MRT GELýST?         1 = definitiv gelýst      2 = vermutlich gelýst      3 = weiý ich nicht mehr      4 = vermutlich NICHT gelýst      5 = definitiv NICHT gelýst
02/12/2023;12:05:00;102;93;2;visAHA;3;1;;2396;32;1PVIP_032_mountain_gauss3.5.jpg
02/12/2023;12:05:00;102;93;3;solution_solved_VIS;6;0;;968;1;Aufgabe im MRT GELýST?         1 = definitiv gelýst      2 = vermutlich gelýst      3 = weiý ich nicht mehr      4 = vermutlich NICHT gelýst      5 = definitiv NICHT gelýst
02/12/2023;12:05:00;102;94;2;visAHA;3;1;;1042;107;2PVIP_102_owl_gauss4.jpg
02/12/2023;12:05:00;102;94;3;solution_solved_VIS;5;0;;813;1;Aufgabe im MRT GELýST?         1 = definitiv gelýst      2 = vermutlich gelýst      3 = weiý ich nicht mehr      4 = vermutlich NICHT gelýst      5 = definitiv NICHT gelýst
02/12/2023;12:05:00;102;95;2;visAHA;2;1;;1371;29;1PVIP_029_leopard3.jpg
02/12/2023;12:05:00;102;95;3;solution_solved_VIS;6;0;;327;1;Aufgabe im MRT GELýST?         1 = definitiv gelýst      2 = vermutlich gelýst      3 = weiý ich nicht mehr      4 = vermutlich NICHT gelýst      5 = definitiv NICHT gelýst
02/12/2023;12:05:00;102;96;2;visAHA;6;0;;852;59;1PVIP_119_sewingmachine.jpg
02/12/2023;12:05:00;102;97;2;visCATCH;6;1;;1021;15;3PVIP_046_christ47_gauss2.jpg
02/12/2023;12:05:00;102;98;2;visAHA;2;1;;732;26;1PVIP_026_hedgehog.new_gauss2.jpg
02/12/2023;12:05:00;102;98;3;solution_solved_VIS;2;1;;314;1;Aufgabe im MRT GELýST?         1 = definitiv gelýst      2 = vermutlich gelýst      3 = weiý ich nicht mehr      4 = vermutlich NICHT gelýst      5 = definitiv NICHT gelýst
02/12/2023;12:05:00;102;98;4;solution_visAHA;Igel;0;1;1762;1;Bitte tippe Dein (damaliges) Lýsungswort hier ein:
02/12/2023;12:05:00;102;99;2;visAHA;5;0;;2775;79;2PVIP_073_coffee_gauss5.jpg
02/12/2023;12:05:00;102;100;2;visAHA;3;1;;2381;119;2PVIP_114_wolf3.jpg
02/12/2023;12:05:00;102;100;3;solution_solved_VIS;6;0;;281;1;Aufgabe im MRT GELýST?         1 = definitiv gelýst      2 = vermutlich gelýst      3 = weiý ich nicht mehr      4 = vermutlich NICHT gelýst      5 = definitiv NICHT gelýst
02/12/2023;12:05:00;102;101;2;visCATCH;3;0;;2859;28;3PVIP_060_wine2_gauss5.jpg
02/12/2023;12:05:00;102;101;3;solution_solved_VIScatch;5;1;;375;1;Aufgabe im MRT GELýST?         1 = definitiv gelýst      2 = vermutlich gelýst      3 = weiý ich nicht mehr      4 = vermutlich NICHT gelýst      5 = definitiv NICHT gelýst
02/12/2023;12:05:00;102;102;2;visAHA;2;1;;1473;9;1PVIP_009_railroad_gauss5.jpg
02/12/2023;12:05:00;102;102;3;solution_solved_VIS;2;1;;374;1;Aufgabe im MRT GELýST?         1 = definitiv gelýst      2 = vermutlich gelýst      3 = weiý ich nicht mehr      4 = vermutlich NICHT gelýst      5 = definitiv NICHT gelýst
02/12/2023;12:05:00;102;102;4;solution_visAHA;Zug;0;1;1465;1;Bitte tippe Dein (damaliges) Lýsungswort hier ein:
02/12/2023;12:05:00;102;103;2;visAHA;2;1;;1847;14;1PVIP_014_chipmunk_gauss2.jpg
02/12/2023;12:05:00;102;103;3;solution_solved_VIS;3;1;;466;1;Aufgabe im MRT GELýST?         1 = definitiv gelýst      2 = vermutlich gelýst      3 = weiý ich nicht mehr      4 = vermutlich NICHT gelýst      5 = definitiv NICHT gelýst
02/12/2023;12:05:00;102;103;4;solution_visAHA;Hase;0;0;2874;1;Bitte tippe Dein (damaliges) Lýsungswort hier ein:
02/12/2023;12:05:00;102;104;2;visCATCH;5;1;;5158;10;3PVIP_041_bouquet1_gauss2.jpg
02/12/2023;12:05:00;102;105;2;visAHA;2;1;;1510;104;2PVIP_099_metro_gauss2.jpg
02/12/2023;12:05:00;102;105;3;solution_solved_VIS;2;1;;972;1;Aufgabe im MRT GELýST?         1 = definitiv gelýst      2 = vermutlich gelýst      3 = weiý ich nicht mehr      4 = vermutlich NICHT gelýst      5 = definitiv NICHT gelýst
02/12/2023;12:05:00;102;105;4;solution_visAHA;Bahn;0;1;20493;1;Bitte tippe Dein (damaliges) Lýsungswort hier ein:
02/12/2023;12:05:00;102;106;2;visCATCH;5;1;;1199;42;3PVIP_012_forceps_gauss4.jpg
02/12/2023;12:05:00;102;107;2;visAHA;2;1;;928;51;1PVIP_051_wheat_gauss1.5.jpg
02/12/2023;12:05:00;102;107;3;solution_solved_VIS;6;0;;615;1;Aufgabe im MRT GELýST?         1 = definitiv gelýst      2 = vermutlich gelýst      3 = weiý ich nicht mehr      4 = vermutlich NICHT gelýst      5 = definitiv NICHT gelýst
02/12/2023;12:05:00;102;108;2;visAHA;3;1;;1168;21;1PVIP_021_fox1_gauss1.jpg
02/12/2023;12:05:00;102;108;3;solution_solved_VIS;3;1;;2205;1;Aufgabe im MRT GELýST?         1 = definitiv gelýst      2 = vermutlich gelýst      3 = weiý ich nicht mehr      4 = vermutlich NICHT gelýst      5 = definitiv NICHT gelýst
02/12/2023;12:05:00;102;108;4;solution_visAHA;Fuchs;0;1;1785;1;Bitte tippe Dein (damaliges) Lýsungswort hier ein:
02/12/2023;12:05:00;102;109;2;visAHA;6;0;;4446;23;1PVIP_023_geese_gauss3.jpg
02/12/2023;12:05:00;102;110;2;visCATCH;3;0;;1977;33;3PVIP_003_boat3.jpg
02/12/2023;12:05:00;102;110;3;solution_solved_VIScatch;3;0;;251;1;Aufgabe im MRT GELýST?         1 = definitiv gelýst      2 = vermutlich gelýst      3 = weiý ich nicht mehr      4 = vermutlich NICHT gelýst      5 = definitiv NICHT gelýst
02/12/2023;12:05:00;102;110;4;solution_visCATCH;Boot;0;1;2861;1;Bitte tippe Dein (damaliges) Lýsungswort hier ein:
02/12/2023;12:05:00;102;111;2;visAHA;6;0;;1516;73;2PVIP_067_carafe2.jpg
02/12/2023;12:05:00;102;112;2;visCATCH;5;1;;1006;12;3PVIP_043_candy_gauss3.jpg
02/12/2023;12:05:00;102;113;2;visAHA;4;0;;2838;45;1PVIP_045_spider.new_gauss1.jpg
02/12/2023;12:05:00;102;114;2;visAHA;4;0;;7026;113;2PVIP_108_shark1_gauss3.jpg
02/12/2023;12:05:00;102;115;2;visCATCH;6;1;;1082;1;3PVIP_032_ameise_gauss2.jpg
02/12/2023;12:05:00;102;116;2;visAHA;5;0;;1068;57;1PVIP_117_pepper.jpg
02/12/2023;12:05:00;102;117;2;visAHA;5;0;;936;60;1PVIP_120_toaster.jpg
02/12/2023;12:05:00;102;118;2;visAHA;3;1;;1873;91;2PVIP_086_girl.jpg
02/12/2023;12:05:00;102;118;3;solution_solved_VIS;6;0;;270;1;Aufgabe im MRT GELýST?         1 = definitiv gelýst      2 = vermutlich gelýst      3 = weiý ich nicht mehr      4 = vermutlich NICHT gelýst      5 = definitiv NICHT gelýst
02/12/2023;12:05:00;102;119;2;visCATCH;6;1;;995;55;3PVIP_026_moth.new_gauss4.jpg
02/12/2023;12:05:00;102;120;2;visAHA;3;1;;2125;108;2PVIP_103_panda_gauss6.jpg
02/12/2023;12:05:00;102;120;3;solution_solved_VIS;4;0;;608;1;Aufgabe im MRT GELýST?         1 = definitiv gelýst      2 = vermutlich gelýst      3 = weiý ich nicht mehr      4 = vermutlich NICHT gelýst      5 = definitiv NICHT gelýst
02/12/2023;12:05:00;102;121;2;visAHA;5;0;;2929;88;2PVIP_083_eye.new_gauss2.jpg
02/12/2023;12:05:00;102;122;2;visAHA;3;1;;3279;40;1PVIP_040_robbe_gauss3.jpg
02/12/2023;12:05:00;102;122;3;solution_solved_VIS;3;1;;626;1;Aufgabe im MRT GELýST?         1 = definitiv gelýst      2 = vermutlich gelýst      3 = weiý ich nicht mehr      4 = vermutlich NICHT gelýst      5 = definitiv NICHT gelýst
02/12/2023;12:05:00;102;122;4;solution_visAHA;Tiger;0;0;2789;1;Bitte tippe Dein (damaliges) Lýsungswort hier ein:
02/12/2023;12:05:00;102;123;2;visAHA;3;1;;5346;80;2PVIP_074_computer.jpg
02/12/2023;12:05:00;102;123;3;solution_solved_VIS;5;0;;222;1;Aufgabe im MRT GELýST?         1 = definitiv gelýst      2 = vermutlich gelýst      3 = weiý ich nicht mehr      4 = vermutlich NICHT gelýst      5 = definitiv NICHT gelýst
02/12/2023;12:05:00;102;124;2;visAHA;3;1;;5487;72;2PVIP_066_burro1_gauss3.jpg
02/12/2023;12:05:00;102;124;3;solution_solved_VIS;3;1;;384;1;Aufgabe im MRT GELýST?         1 = definitiv gelýst      2 = vermutlich gelýst      3 = weiý ich nicht mehr      4 = vermutlich NICHT gelýst      5 = definitiv NICHT gelýst
02/12/2023;12:05:00;102;124;4;solution_visAHA;Esel;0;1;2301;1;Bitte tippe Dein (damaliges) Lýsungswort hier ein:
02/12/2023;12:05:00;102;125;2;visCATCH;5;1;;2258;60;3PVIP_031_prison_gauss7.jpg
02/12/2023;12:05:00;102;126;2;visAHA;5;0;;4039;42;1PVIP_042_sheep1_gauss2.5.jpg
02/12/2023;12:05:00;102;127;2;visAHA;4;0;;1166;114;2PVIP_109_shoes2_gauss4.jpg
02/12/2023;12:05:00;102;128;2;visCATCH;3;0;;1356;14;3PVIP_045_chicken_gauss3.jpg
02/12/2023;12:05:00;102;128;3;solution_solved_VIScatch;5;1;;791;1;Aufgabe im MRT GELýST?         1 = definitiv gelýst      2 = vermutlich gelýst      3 = weiý ich nicht mehr      4 = vermutlich NICHT gelýst      5 = definitiv NICHT gelýst
02/12/2023;12:05:00;102;129;2;visAHA;3;1;;1508;103;2PVIP_098_lion2.jpg
02/12/2023;12:05:00;102;129;3;solution_solved_VIS;5;0;;628;1;Aufgabe im MRT GELýST?         1 = definitiv gelýst      2 = vermutlich gelýst      3 = weiý ich nicht mehr      4 = vermutlich NICHT gelýst      5 = definitiv NICHT gelýst
02/12/2023;12:05:00;102;130;2;visAHA;3;1;;1859;18;1PVIP_018_dog3_gauss2.5.jpg
02/12/2023;12:05:00;102;130;3;solution_solved_VIS;6;0;;392;1;Aufgabe im MRT GELýST?         1 = definitiv gelýst      2 = vermutlich gelýst      3 = weiý ich nicht mehr      4 = vermutlich NICHT gelýst      5 = definitiv NICHT gelýst
02/12/2023;12:05:00;102;131;2;visCATCH;5;1;;1257;59;3PVIP_030_pigeon_gauss4.jpg
02/12/2023;12:05:00;102;132;2;visAHA;6;0;;994;20;1PVIP_020_fork.jpg
02/12/2023;12:05:00;102;133;2;visCATCH;6;1;;1792;41;3PVIP_011_football_gauss3.jpg
02/12/2023;12:05:00;102;134;2;visAHA;2;1;;1495;101;2PVIP_096_lamb_gauss3.jpg
02/12/2023;12:05:00;102;134;3;solution_solved_VIS;2;1;;285;1;Aufgabe im MRT GELýST?         1 = definitiv gelýst      2 = vermutlich gelýst      3 = weiý ich nicht mehr      4 = vermutlich NICHT gelýst      5 = definitiv NICHT gelýst
02/12/2023;12:05:00;102;134;4;solution_visAHA;lamm;0;1;2721;1;Bitte tippe Dein (damaliges) Lýsungswort hier ein:
02/12/2023;12:05:00;102;135;2;visCATCH;2;0;;1167;24;3PVIP_056_tractor_gauss4.jpg
02/12/2023;12:05:00;102;135;3;solution_solved_VIScatch;2;0;;300;1;Aufgabe im MRT GELýST?         1 = definitiv gelýst      2 = vermutlich gelýst      3 = weiý ich nicht mehr      4 = vermutlich NICHT gelýst      5 = definitiv NICHT gelýst
02/12/2023;12:05:00;102;135;4;solution_visCATCH;Traktor;0;1;5484;1;Bitte tippe Dein (damaliges) Lýsungswort hier ein:
02/12/2023;12:05:00;102;136;2;visAHA;6;0;;959;74;2PVIP_068_carafe3.jpg
02/12/2023;12:05:00;102;137;2;visAHA;2;1;;825;85;2PVIP_079_drumset_gauss5.jpg
02/12/2023;12:05:00;102;137;3;solution_solved_VIS;2;1;;278;1;Aufgabe im MRT GELýST?         1 = definitiv gelýst      2 = vermutlich gelýst      3 = weiý ich nicht mehr      4 = vermutlich NICHT gelýst      5 = definitiv NICHT gelýst
02/12/2023;12:05:00;102;137;4;solution_visAHA;Schlagzeug;0;1;5799;1;Bitte tippe Dein (damaliges) Lýsungswort hier ein:
02/12/2023;12:05:00;102;138;2;visAHA;3;1;;3023;115;2PVIP_110_ski.new_gauss1.jpg
02/12/2023;12:05:00;102;138;3;solution_solved_VIS;3;1;;297;1;Aufgabe im MRT GELýST?         1 = definitiv gelýst      2 = vermutlich gelýst      3 = weiý ich nicht mehr      4 = vermutlich NICHT gelýst      5 = definitiv NICHT gelýst
02/12/2023;12:05:00;102;138;4;solution_visAHA;Skier;0;1;3043;1;Bitte tippe Dein (damaliges) Lýsungswort hier ein:
02/12/2023;12:05:00;102;139;2;visAHA;4;0;;2882;84;2PVIP_078_crocodile2_gauss2.jpg
02/12/2023;12:05:00;102;140;2;visCATCH;5;1;;725;8;3PVIP_039_birdie_gauss7.jpg
02/12/2023;12:05:00;102;141;2;visAHA;3;1;;789;87;2PVIP_081_elephant2_gauss2.jpg
02/12/2023;12:05:00;102;141;3;solution_solved_VIS;5;0;;312;1;Aufgabe im MRT GELýST?         1 = definitiv gelýst      2 = vermutlich gelýst      3 = weiý ich nicht mehr      4 = vermutlich NICHT gelýst      5 = definitiv NICHT gelýst
02/12/2023;12:05:00;102;142;2;visCATCH;3;0;;2423;9;3PVIP_040_blossom2_gauss2.jpg
02/12/2023;12:05:00;102;142;3;solution_solved_VIScatch;5;1;;1655;1;Aufgabe im MRT GELýST?         1 = definitiv gelýst      2 = vermutlich gelýst      3 = weiý ich nicht mehr      4 = vermutlich NICHT gelýst      5 = definitiv NICHT gelýst
02/12/2023;12:05:00;102;143;2;visAHA;6;0;;3326;2;1PVIP_002_arrow_gauss2.jpg
02/12/2023;12:05:00;102;144;2;visAHA;6;0;;1892;53;1PVIP_053_watch2.jpg
02/12/2023;12:05:00;102;145;2;visCATCH;3;0;;4386;38;3PVIP_008_duck.new_gauss2.jpg
02/12/2023;12:05:00;102;145;3;solution_solved_VIScatch;5;1;;327;1;Aufgabe im MRT GELýST?         1 = definitiv gelýst      2 = vermutlich gelýst      3 = weiý ich nicht mehr      4 = vermutlich NICHT gelýst      5 = definitiv NICHT gelýst
02/12/2023;12:05:00;102;146;2;visAHA;5;0;;1926;34;1PVIP_034_octopus.new_gauss1.5.jpg
02/12/2023;12:05:00;102;147;2;visAHA;6;0;;979;118;2PVIP_113_whale.jpg
02/12/2023;12:05:00;102;148;2;visCATCH;3;0;;1063;35;3PVIP_005_dalmation8_gauss6.jpg
02/12/2023;12:05:00;102;148;3;solution_solved_VIScatch;6;1;;399;1;Aufgabe im MRT GELýST?         1 = definitiv gelýst      2 = vermutlich gelýst      3 = weiý ich nicht mehr      4 = vermutlich NICHT gelýst      5 = definitiv NICHT gelýst
02/12/2023;12:05:00;102;149;2;visAHA;6;0;;641;94;2PVIP_089_hammer_gauss2.jpg
02/12/2023;12:05:00;102;150;2;visAHA;3;1;;646;98;2PVIP_093_kamel_gauss1.5.jpg
02/12/2023;12:05:00;102;150;3;solution_solved_VIS;5;0;;262;1;Aufgabe im MRT GELýST?         1 = definitiv gelýst      2 = vermutlich gelýst      3 = weiý ich nicht mehr      4 = vermutlich NICHT gelýst      5 = definitiv NICHT gelýst
02/12/2023;12:05:00;102;151;2;visCATCH;5;1;;1679;57;3PVIP_028_peach_gauss3.jpg
02/12/2023;12:05:00;102;152;2;visAHA;3;1;;1771;39;1PVIP_039_rat_gauss1.jpg
02/12/2023;12:05:00;102;152;3;solution_solved_VIS;3;1;;157;1;Aufgabe im MRT GELýST?         1 = definitiv gelýst      2 = vermutlich gelýst      3 = weiý ich nicht mehr      4 = vermutlich NICHT gelýst      5 = definitiv NICHT gelýst
02/12/2023;12:05:00;102;152;4;solution_visAHA;maus;0;2;1991;1;Bitte tippe Dein (damaliges) Lýsungswort hier ein:
02/12/2023;12:05:00;102;153;2;visAHA;6;0;;1160;117;2PVIP_112_watch.jpg
02/12/2023;12:05:00;102;154;2;visCATCH;5;1;;1100;25;3PVIP_057_treemouse_gauss3.jpg
02/12/2023;12:05:00;102;155;2;visAHA;5;0;;1367;5;1PVIP_005_bell_gauss1.5.jpg
02/12/2023;12:05:00;102;156;2;visAHA;6;0;;696;36;1PVIP_036_pen2.jpg
02/12/2023;12:05:00;102;157;2;visAHA;2;1;;1146;78;2PVIP_072_cigarette_gauss3.jpg
02/12/2023;12:05:00;102;157;3;solution_solved_VIS;2;1;;602;1;Aufgabe im MRT GELýST?         1 = definitiv gelýst      2 = vermutlich gelýst      3 = weiý ich nicht mehr      4 = vermutlich NICHT gelýst      5 = definitiv NICHT gelýst
02/12/2023;12:05:00;102;157;4;solution_visAHA;Zigarette;0;1;3806;1;Bitte tippe Dein (damaliges) Lýsungswort hier ein:
02/12/2023;12:05:00;102;158;2;visAHA;4;0;;1389;99;2PVIP_094_kettle2_gauss3.jpg
02/12/2023;12:05:00;102;159;2;visCATCH;4;1;;2011;30;3PVIP_062_zebra2_gauss12.jpg
02/12/2023;12:05:00;102;160;2;visAHA;5;0;;3112;44;1PVIP_044_snake_gauss1.5.jpg
02/12/2023;12:05:00;102;161;2;visAHA;3;1;;2153;37;1PVIP_037_pfau_gauss3.jpg
02/12/2023;12:05:00;102;161;3;solution_solved_VIS;3;1;;321;1;Aufgabe im MRT GELýST?         1 = definitiv gelýst      2 = vermutlich gelýst      3 = weiý ich nicht mehr      4 = vermutlich NICHT gelýst      5 = definitiv NICHT gelýst
02/12/2023;12:05:00;102;161;4;solution_visAHA;Pfau;0;1;2656;1;Bitte tippe Dein (damaliges) Lýsungswort hier ein:
02/12/2023;12:05:00;102;162;2;visCATCH;5;1;;1854;21;3PVIP_053_tent_gauss4.jpg
02/12/2023;12:05:00;102;163;2;visAHA;5;0;;1129;110;2PVIP_105_puppy1_gauss3.jpg
02/12/2023;12:05:00;102;164;2;visCATCH;6;1;;1225;23;3PVIP_055_tongue_gauss2.jpg
02/12/2023;12:05:00;102;165;2;visAHA;6;0;;1115;3;1PVIP_003_beehive_gauss2.jpg
02/12/2023;12:05:00;102;166;2;visAHA;4;0;;1101;111;2PVIP_106_saxophone1_gauss3.jpg
02/12/2023;12:05:00;102;167;2;visCATCH;5;1;;613;5;3PVIP_036_bat_gauss4.jpg
02/12/2023;12:05:00;102;168;2;visAHA;3;1;;762;28;1PVIP_028_knife.new_gauss1.5.jpg
02/12/2023;12:05:00;102;168;3;solution_solved_VIS;5;0;;422;1;Aufgabe im MRT GELýST?         1 = definitiv gelýst      2 = vermutlich gelýst      3 = weiý ich nicht mehr      4 = vermutlich NICHT gelýst      5 = definitiv NICHT gelýst
02/12/2023;12:05:00;102;169;2;visCATCH;6;1;;957;29;3PVIP_061_wing1_gauss4.jpg
02/12/2023;12:05:00;102;170;2;visAHA;2;1;;2088;30;1PVIP_030_lion1_gauss2.5.jpg
02/12/2023;12:05:00;102;170;3;solution_solved_VIS;3;1;;297;1;Aufgabe im MRT GELýST?         1 = definitiv gelýst      2 = vermutlich gelýst      3 = weiý ich nicht mehr      4 = vermutlich NICHT gelýst      5 = definitiv NICHT gelýst
02/12/2023;12:05:00;102;170;4;solution_visAHA;Lýwe;0;1;3215;1;Bitte tippe Dein (damaliges) Lýsungswort hier ein:
02/12/2023;12:05:00;102;171;2;visAHA;6;0;;1205;62;2PVIP_056_baby3_gauss5.jpg
02/12/2023;12:05:00;102;172;2;visAHA;2;1;;909;46;1PVIP_046_tiger_gauss2.5.jpg
02/12/2023;12:05:00;102;172;3;solution_solved_VIS;2;1;;467;1;Aufgabe im MRT GELýST?         1 = definitiv gelýst      2 = vermutlich gelýst      3 = weiý ich nicht mehr      4 = vermutlich NICHT gelýst      5 = definitiv NICHT gelýst
02/12/2023;12:05:00;102;172;4;solution_visAHA;Tiger;0;1;2275;1;Bitte tippe Dein (damaliges) Lýsungswort hier ein:
02/12/2023;12:05:00;102;173;2;visAHA;4;0;;1868;89;2PVIP_084_fish1_gauss3.jpg
02/12/2023;12:05:00;102;174;2;visCATCH;5;1;;3050;51;3PVIP_022_llama_gauss3.jpg
02/12/2023;12:05:00;102;175;2;visAHA;6;0;;1235;54;1PVIP_054_toilet_gauss5.jpg
02/12/2023;12:05:00;102;176;2;visAHA;5;0;;2882;64;2PVIP_058_bagpipe_gauss6.jpg
02/12/2023;12:05:00;102;177;2;visCATCH;6;1;;983;27;3PVIP_059_wateringcan_gauss4.jpg
02/12/2023;12:05:00;102;178;2;visAHA;3;1;;1943;52;1PVIP_052_wolf2.jpg
02/12/2023;12:05:00;102;178;3;solution_solved_VIS;5;0;;394;1;Aufgabe im MRT GELýST?         1 = definitiv gelýst      2 = vermutlich gelýst      3 = weiý ich nicht mehr      4 = vermutlich NICHT gelýst      5 = definitiv NICHT gelýst
02/12/2023;12:05:00;102;179;2;visCATCH;3;0;;3355;20;3PVIP_052_cat3.jpg
02/12/2023;12:05:00;102;179;3;solution_solved_VIScatch;5;1;;1391;1;Aufgabe im MRT GELýST?         1 = definitiv gelýst      2 = vermutlich gelýst      3 = weiý ich nicht mehr      4 = vermutlich NICHT gelýst      5 = definitiv NICHT gelýst
02/12/2023;12:05:00;102;180;2;visAHA;3;1;;2896;41;1PVIP_041_rose.jpg
02/12/2023;12:05:00;102;180;3;solution_solved_VIS;5;0;;889;1;Aufgabe im MRT GELýST?         1 = definitiv gelýst      2 = vermutlich gelýst      3 = weiý ich nicht mehr      4 = vermutlich NICHT gelýst      5 = definitiv NICHT gelýst
02/12/2023;12:05:00;102;181;2;visCATCH;4;1;;1047;16;3PVIP_047_clown1_gauss4.jpg
02/12/2023;14:40:20;103;2;2;visAHA;3;1;;12739;102;2PVIP_097_leopard7.jpg
02/12/2023;14:40:20;103;2;3;solution_solved_VIS;3;1;;4348;1;Aufgabe im MRT GELýST?         1 = definitiv gelýst      2 = vermutlich gelýst      3 = weiý ich nicht mehr      4 = vermutlich NICHT gelýst      5 = definitiv NICHT gelýst
02/12/2023;14:40:20;103;2;4;solution_visAHA;weis nicht;0;0;7461;1;Bitte tippe Dein (damaliges) Lýsungswort hier ein:
02/12/2023;14:40:20;103;3;2;visCATCH;6;1;;5343;6;3PVIP_037_beard2_gauss5.jpg
02/12/2023;14:40:20;103;4;2;visAHA;4;0;;4901;12;1PVIP_012_cabin2.jpg
02/12/2023;14:40:20;103;5;2;visCATCH;5;1;;1567;31;3PVIP_001_cockatoo.new_gauss4.jpg
02/12/2023;14:40:20;103;6;2;visAHA;4;0;;1677;15;1PVIP_015_crocodile1_gauss2.5.jpg
02/12/2023;14:40:20;103;7;2;visAHA;4;0;;1633;81;2PVIP_075_chair3_gauss5.jpg
02/12/2023;14:40:20;103;8;2;visAHA;4;0;;2493;53;1PVIP_053_watch2.jpg
02/12/2023;14:40:20;103;9;2;visCATCH;3;0;;3357;1;3PVIP_032_ameise_gauss2.jpg
02/12/2023;14:40:20;103;9;3;solution_solved_VIScatch;4;1;;3411;1;Aufgabe im MRT GELýST?         1 = definitiv gelýst      2 = vermutlich gelýst      3 = weiý ich nicht mehr      4 = vermutlich NICHT gelýst      5 = definitiv NICHT gelýst
02/12/2023;14:40:20;103;10;2;visAHA;3;1;;1911;13;1PVIP_013_cat.new_gauss3.jpg
02/12/2023;14:40:20;103;10;3;solution_solved_VIS;5;0;;2822;1;Aufgabe im MRT GELýST?         1 = definitiv gelýst      2 = vermutlich gelýst      3 = weiý ich nicht mehr      4 = vermutlich NICHT gelýst      5 = definitiv NICHT gelýst
02/12/2023;14:40:20;103;11;2;visCATCH;4;1;;1656;42;3PVIP_012_forceps_gauss4.jpg
02/12/2023;14:40:20;103;12;2;visAHA;3;1;;4398;69;2PVIP_063_brick_gauss5.jpg
02/12/2023;14:40:20;103;12;3;solution_solved_VIS;4;0;;2778;1;Aufgabe im MRT GELýST?         1 = definitiv gelýst      2 = vermutlich gelýst      3 = weiý ich nicht mehr      4 = vermutlich NICHT gelýst      5 = definitiv NICHT gelýst
02/12/2023;14:40:20;103;13;2;visAHA;2;1;;2856;100;2PVIP_095_knob_gauss1.jpg
02/12/2023;14:40:20;103;13;3;solution_solved_VIS;5;0;;2294;1;Aufgabe im MRT GELýST?         1 = definitiv gelýst      2 = vermutlich gelýst      3 = weiý ich nicht mehr      4 = vermutlich NICHT gelýst      5 = definitiv NICHT gelýst
02/12/2023;14:40:20;103;14;2;visCATCH;5;1;;5594;54;3PVIP_025_moose.new_gauss5.jpg
02/12/2023;14:40:20;103;15;2;visAHA;3;1;;3783;116;2PVIP_111_snake3.jpg
02/12/2023;14:40:20;103;15;3;solution_solved_VIS;6;0;;2445;1;Aufgabe im MRT GELýST?         1 = definitiv gelýst      2 = vermutlich gelýst      3 = weiý ich nicht mehr      4 = vermutlich NICHT gelýst      5 = definitiv NICHT gelýst
02/12/2023;14:40:20;103;16;2;visAHA;5;0;;3171;18;1PVIP_018_dog3_gauss2.5.jpg
02/12/2023;14:40:20;103;17;2;visAHA;3;1;;1017;112;2PVIP_107_scorpion_gauss8.jpg
02/12/2023;14:40:20;103;17;3;solution_solved_VIS;5;0;;715;1;Aufgabe im MRT GELýST?         1 = definitiv gelýst      2 = vermutlich gelýst      3 = weiý ich nicht mehr      4 = vermutlich NICHT gelýst      5 = definitiv NICHT gelýst
02/12/2023;14:40:20;103;18;2;visAHA;4;0;;4055;103;2PVIP_098_lion2.jpg
02/12/2023;14:40:20;103;19;2;visCATCH;5;1;;2695;19;3PVIP_051_soldier_gauss5.jpg
02/12/2023;14:40:20;103;20;2;visAHA;5;0;;6978;58;1PVIP_118_phone_gauss5.jpg
02/12/2023;14:40:20;103;21;2;visAHA;5;0;;648;113;2PVIP_108_shark1_gauss3.jpg
02/12/2023;14:40:20;103;22;2;visAHA;5;0;;3272;94;2PVIP_089_hammer_gauss2.jpg
02/12/2023;14:40:20;103;23;2;visCATCH;5;1;;4088;49;3PVIP_020_key_gauss3.jpg
02/12/2023;14:40:20;103;24;2;visAHA;3;1;;1476;68;2PVIP_062_book2_gauss3.5.jpg
02/12/2023;14:40:20;103;24;3;solution_solved_VIS;3;1;;3990;1;Aufgabe im MRT GELýST?         1 = definitiv gelýst      2 = vermutlich gelýst      3 = weiý ich nicht mehr      4 = vermutlich NICHT gelýst      5 = definitiv NICHT gelýst
02/12/2023;14:40:20;103;24;4;solution_visAHA;Buch;0;1;2665;1;Bitte tippe Dein (damaliges) Lýsungswort hier ein:
02/12/2023;14:40:20;103;25;2;visAHA;3;1;;1889;119;2PVIP_114_wolf3.jpg
02/12/2023;14:40:20;103;25;3;solution_solved_VIS;5;0;;372;1;Aufgabe im MRT GELýST?         1 = definitiv gelýst      2 = vermutlich gelýst      3 = weiý ich nicht mehr      4 = vermutlich NICHT gelýst      5 = definitiv NICHT gelýst
02/12/2023;14:40:20;103;26;2;visAHA;3;1;;1489;38;1PVIP_038_python2_gauss2.jpg
02/12/2023;14:40:20;103;26;3;solution_solved_VIS;6;0;;778;1;Aufgabe im MRT GELýST?         1 = definitiv gelýst      2 = vermutlich gelýst      3 = weiý ich nicht mehr      4 = vermutlich NICHT gelýst      5 = definitiv NICHT gelýst
02/12/2023;14:40:20;103;27;2;visCATCH;6;1;;2486;4;3PVIP_035_basket_gauss3.jpg
02/12/2023;14:40:20;103;28;2;visAHA;5;0;;2422;75;2PVIP_069_cat2.jpg
02/12/2023;14:40:20;103;29;2;visCATCH;3;0;;857;29;3PVIP_061_wing1_gauss4.jpg
02/12/2023;14:40:20;103;29;3;solution_solved_VIScatch;5;1;;342;1;Aufgabe im MRT GELýST?         1 = definitiv gelýst      2 = vermutlich gelýst      3 = weiý ich nicht mehr      4 = vermutlich NICHT gelýst      5 = definitiv NICHT gelýst
02/12/2023;14:40:20;103;30;2;visAHA;4;0;;2311;107;2PVIP_102_owl_gauss4.jpg
02/12/2023;14:40:20;103;31;2;visCATCH;5;1;;2102;59;3PVIP_030_pigeon_gauss4.jpg
02/12/2023;14:40:20;103;32;2;visAHA;5;0;;3726;55;1PVIP_082_erdbeere_gauss1.jpg
02/12/2023;14:40:20;103;33;2;visAHA;5;0;;1022;114;2PVIP_109_shoes2_gauss4.jpg
02/12/2023;14:40:20;103;34;2;visAHA;5;0;;1007;56;1PVIP_116_otter.jpg
02/12/2023;14:40:20;103;35;2;visAHA;3;1;;1122;92;2PVIP_087_goat_gauss5.jpg
02/12/2023;14:40:20;103;35;3;solution_solved_VIS;2;1;;1609;1;Aufgabe im MRT GELýST?         1 = definitiv gelýst      2 = vermutlich gelýst      3 = weiý ich nicht mehr      4 = vermutlich NICHT gelýst      5 = definitiv NICHT gelýst
02/12/2023;14:40:20;103;35;4;solution_visAHA;Ziege;0;1;2175;1;Bitte tippe Dein (damaliges) Lýsungswort hier ein:
02/12/2023;14:40:20;103;36;2;visCATCH;4;1;;3926;51;3PVIP_022_llama_gauss3.jpg
02/12/2023;14:40:20;103;37;2;visAHA;3;1;;5378;98;2PVIP_093_kamel_gauss1.5.jpg
02/12/2023;14:40:20;103;37;3;solution_solved_VIS;4;0;;3103;1;Aufgabe im MRT GELýST?         1 = definitiv gelýst      2 = vermutlich gelýst      3 = weiý ich nicht mehr      4 = vermutlich NICHT gelýst      5 = definitiv NICHT gelýst
02/12/2023;14:40:20;103;38;2;visAHA;6;0;;5448;49;1PVIP_049_turtle_gauss4.jpg
02/12/2023;14:40:20;103;39;2;visAHA;3;1;;3121;4;1PVIP_004_beetle1_gauss2.5.jpg
02/12/2023;14:40:20;103;39;3;solution_solved_VIS;5;0;;399;1;Aufgabe im MRT GELýST?         1 = definitiv gelýst      2 = vermutlich gelýst      3 = weiý ich nicht mehr      4 = vermutlich NICHT gelýst      5 = definitiv NICHT gelýst
02/12/2023;14:40:20;103;40;2;visAHA;5;0;;3850;111;2PVIP_106_saxophone1_gauss3.jpg
02/12/2023;14:40:20;103;41;2;visAHA;5;0;;6929;65;2PVIP_059_bear.new_gauss4.jpg
02/12/2023;14:40:20;103;42;2;visAHA;5;0;;1258;44;1PVIP_044_snake_gauss1.5.jpg
02/12/2023;14:40:20;103;43;2;visAHA;5;0;;1777;73;2PVIP_067_carafe2.jpg
02/12/2023;14:40:20;103;44;2;visAHA;3;1;;1706;9;1PVIP_009_railroad_gauss5.jpg
02/12/2023;14:40:20;103;44;3;solution_solved_VIS;5;0;;816;1;Aufgabe im MRT GELýST?         1 = definitiv gelýst      2 = vermutlich gelýst      3 = weiý ich nicht mehr      4 = vermutlich NICHT gelýst      5 = definitiv NICHT gelýst
02/12/2023;14:40:20;103;45;2;visAHA;3;1;;3775;29;1PVIP_029_leopard3.jpg
02/12/2023;14:40:20;103;45;3;solution_solved_VIS;3;1;;1474;1;Aufgabe im MRT GELýST?         1 = definitiv gelýst      2 = vermutlich gelýst      3 = weiý ich nicht mehr      4 = vermutlich NICHT gelýst      5 = definitiv NICHT gelýst
02/12/2023;14:40:20;103;45;4;solution_visAHA;Jaguar;0;2;2155;1;Bitte tippe Dein (damaliges) Lýsungswort hier ein:
02/12/2023;14:40:20;103;46;2;visAHA;5;0;;3243;40;1PVIP_040_robbe_gauss3.jpg
02/12/2023;14:40:20;103;47;2;visAHA;4;0;;4084;77;2PVIP_071_chair1_gauss3.jpg
02/12/2023;14:40:20;103;48;2;visAHA;2;1;;5635;1;1PVIP_001_accordi2_gauss4.jpg
02/12/2023;14:40:20;103;48;3;solution_solved_VIS;5;0;;1329;1;Aufgabe im MRT GELýST?         1 = definitiv gelýst      2 = vermutlich gelýst      3 = weiý ich nicht mehr      4 = vermutlich NICHT gelýst      5 = definitiv NICHT gelýst
02/12/2023;14:40:20;103;49;2;visAHA;4;0;;4837;19;1PVIP_019_elephant1_gauss2.jpg
02/12/2023;14:40:20;103;50;2;visAHA;3;1;;3491;22;1PVIP_022_frog2_gauss4.jpg
02/12/2023;14:40:20;103;50;3;solution_solved_VIS;3;1;;1495;1;Aufgabe im MRT GELýST?         1 = definitiv gelýst      2 = vermutlich gelýst      3 = weiý ich nicht mehr      4 = vermutlich NICHT gelýst      5 = definitiv NICHT gelýst
02/12/2023;14:40:20;103;50;4;solution_visAHA;Frosch;0;1;2690;1;Bitte tippe Dein (damaliges) Lýsungswort hier ein:
02/12/2023;14:40:20;103;51;2;visCATCH;4;1;;2389;47;3PVIP_017_iron_gauss3.jpg
02/12/2023;14:40:20;103;52;2;visAHA;5;0;;1159;108;2PVIP_103_panda_gauss6.jpg
02/12/2023;14:40:20;103;53;2;visAHA;5;0;;6243;90;2PVIP_085_frog5.jpg
02/12/2023;14:40:20;103;54;2;visAHA;3;1;;1972;101;2PVIP_096_lamb_gauss3.jpg
02/12/2023;14:40:20;103;54;3;solution_solved_VIS;2;1;;934;1;Aufgabe im MRT GELýST?         1 = definitiv gelýst      2 = vermutlich gelýst      3 = weiý ich nicht mehr      4 = vermutlich NICHT gelýst      5 = definitiv NICHT gelýst
02/12/2023;14:40:20;103;54;4;solution_visAHA;Lamm;0;1;2194;1;Bitte tippe Dein (damaliges) Lýsungswort hier ein:
02/12/2023;14:40:20;103;55;2;visAHA;3;1;;2687;54;1PVIP_054_toilet_gauss5.jpg
02/12/2023;14:40:20;103;55;3;solution_solved_VIS;5;0;;544;1;Aufgabe im MRT GELýST?         1 = definitiv gelýst      2 = vermutlich gelýst      3 = weiý ich nicht mehr      4 = vermutlich NICHT gelýst      5 = definitiv NICHT gelýst
02/12/2023;14:40:20;103;56;2;visCATCH;5;1;;2411;11;3PVIP_042_bread2_gauss2.jpg
02/12/2023;14:40:20;103;57;2;visAHA;5;0;;1233;34;1PVIP_034_octopus.new_gauss1.5.jpg
02/12/2023;14:40:20;103;58;2;visCATCH;4;1;;3984;32;3PVIP_002_cockpit_gauss3.jpg
02/12/2023;14:40:20;103;59;2;visAHA;5;0;;4473;33;1PVIP_033_nashorn_gauss2.jpg
02/12/2023;14:40:20;103;60;2;visAHA;3;1;;2508;115;2PVIP_110_ski.new_gauss1.jpg
02/12/2023;14:40:20;103;60;3;solution_solved_VIS;5;0;;478;1;Aufgabe im MRT GELýST?         1 = definitiv gelýst      2 = vermutlich gelýst      3 = weiý ich nicht mehr      4 = vermutlich NICHT gelýst      5 = definitiv NICHT gelýst
02/12/2023;14:40:20;103;61;2;visAHA;4;0;;5190;86;2PVIP_080_ear_gauss2.jpg
02/12/2023;14:40:20;103;62;2;visAHA;3;1;;3779;109;2PVIP_104_piano.jpg
02/12/2023;14:40:20;103;62;3;solution_solved_VIS;3;1;;927;1;Aufgabe im MRT GELýST?         1 = definitiv gelýst      2 = vermutlich gelýst      3 = weiý ich nicht mehr      4 = vermutlich NICHT gelýst      5 = definitiv NICHT gelýst
02/12/2023;14:40:20;103;62;4;solution_visAHA;Klavier;0;1;3877;1;Bitte tippe Dein (damaliges) Lýsungswort hier ein:
02/12/2023;14:40:20;103;63;2;visCATCH;5;1;;1502;53;3PVIP_024_mole_gauss2.jpg
02/12/2023;14:40:20;103;64;2;visAHA;5;0;;3089;31;1PVIP_031_lizard_gauss2.jpg
02/12/2023;14:40:20;103;65;2;visAHA;3;1;;5383;39;1PVIP_039_rat_gauss1.jpg
02/12/2023;14:40:20;103;65;3;solution_solved_VIS;5;0;;431;1;Aufgabe im MRT GELýST?         1 = definitiv gelýst      2 = vermutlich gelýst      3 = weiý ich nicht mehr      4 = vermutlich NICHT gelýst      5 = definitiv NICHT gelýst
02/12/2023;14:40:20;103;66;2;visCATCH;5;1;;2312;41;3PVIP_011_football_gauss3.jpg
02/12/2023;14:40:20;103;67;2;visAHA;5;0;;1754;84;2PVIP_078_crocodile2_gauss2.jpg
02/12/2023;14:40:20;103;68;2;visAHA;4;0;;2221;17;1PVIP_017_deer2_gauss1.jpg
02/12/2023;14:40:20;103;69;2;visCATCH;5;1;;1773;15;3PVIP_046_christ47_gauss2.jpg
02/12/2023;14:40:20;103;70;2;visAHA;5;0;;3847;43;1PVIP_043_snail.new_gauss2.5.jpg
02/12/2023;14:40:20;103;71;2;visCATCH;3;0;;3599;17;3PVIP_049_seahorse_gauss6.jpg
02/12/2023;14:40:20;103;71;3;solution_solved_VIScatch;5;1;;442;1;Aufgabe im MRT GELýST?         1 = definitiv gelýst      2 = vermutlich gelýst      3 = weiý ich nicht mehr      4 = vermutlich NICHT gelýst      5 = definitiv NICHT gelýst
02/12/2023;14:40:20;103;72;2;visAHA;5;0;;2391;41;1PVIP_041_rose.jpg
02/12/2023;14:40:20;103;73;2;visCATCH;5;1;;1409;23;3PVIP_055_tongue_gauss2.jpg
02/12/2023;14:40:20;103;74;2;visAHA;2;1;;2143;117;2PVIP_112_watch.jpg
02/12/2023;14:40:20;103;74;3;solution_solved_VIS;3;1;;4149;1;Aufgabe im MRT GELýST?         1 = definitiv gelýst      2 = vermutlich gelýst      3 = weiý ich nicht mehr      4 = vermutlich NICHT gelýst      5 = definitiv NICHT gelýst
02/12/2023;14:40:20;103;74;4;solution_visAHA;Parkplatz;0;0;3722;1;Bitte tippe Dein (damaliges) Lýsungswort hier ein:
02/12/2023;14:40:20;103;75;2;visAHA;3;1;;5013;3;1PVIP_003_beehive_gauss2.jpg
02/12/2023;14:40:20;103;75;3;solution_solved_VIS;5;0;;121;1;Aufgabe im MRT GELýST?         1 = definitiv gelýst      2 = vermutlich gelýst      3 = weiý ich nicht mehr      4 = vermutlich NICHT gelýst      5 = definitiv NICHT gelýst
02/12/2023;14:40:20;103;76;2;visAHA;5;0;;3111;83;2PVIP_077_cow3.jpg
02/12/2023;14:40:20;103;77;2;visAHA;3;1;;1595;51;1PVIP_051_wheat_gauss1.5.jpg
02/12/2023;14:40:20;103;77;3;solution_solved_VIS;5;0;;481;1;Aufgabe im MRT GELýST?         1 = definitiv gelýst      2 = vermutlich gelýst      3 = weiý ich nicht mehr      4 = vermutlich NICHT gelýst      5 = definitiv NICHT gelýst
02/12/2023;14:40:20;103;78;2;visAHA;2;1;;3272;85;2PVIP_079_drumset_gauss5.jpg
02/12/2023;14:40:20;103;78;3;solution_solved_VIS;3;1;;1141;1;Aufgabe im MRT GELýST?         1 = definitiv gelýst      2 = vermutlich gelýst      3 = weiý ich nicht mehr      4 = vermutlich NICHT gelýst      5 = definitiv NICHT gelýst
02/12/2023;14:40:20;103;78;4;solution_visAHA;Schlagzeug;0;1;3047;1;Bitte tippe Dein (damaliges) Lýsungswort hier ein:
02/12/2023;14:40:20;103;79;2;visCATCH;5;1;;1505;10;3PVIP_041_bouquet1_gauss2.jpg
02/12/2023;14:40:20;103;80;2;visAHA;2;1;;1032;105;2PVIP_100_mirror_gauss4.jpg
02/12/2023;14:40:20;103;80;3;solution_solved_VIS;3;1;;4995;1;Aufgabe im MRT GELýST?         1 = definitiv gelýst      2 = vermutlich gelýst      3 = weiý ich nicht mehr      4 = vermutlich NICHT gelýst      5 = definitiv NICHT gelýst
02/12/2023;14:40:20;103;80;4;solution_visAHA;Spigel;0;1;2741;1;Bitte tippe Dein (damaliges) Lýsungswort hier ein:
02/12/2023;14:40:20;103;81;2;visAHA;3;1;;3553;59;1PVIP_119_sewingmachine.jpg
02/12/2023;14:40:20;103;81;3;solution_solved_VIS;6;0;;441;1;Aufgabe im MRT GELýST?         1 = definitiv gelýst      2 = vermutlich gelýst      3 = weiý ich nicht mehr      4 = vermutlich NICHT gelýst      5 = definitiv NICHT gelýst
02/12/2023;14:40:20;103;82;2;visCATCH;4;1;;4796;48;3PVIP_018_kameleon1_gauss4.jpg
02/12/2023;14:40:20;103;83;2;visAHA;3;1;;1761;23;1PVIP_023_geese_gauss3.jpg
02/12/2023;14:40:20;103;83;3;solution_solved_VIS;4;0;;380;1;Aufgabe im MRT GELýST?         1 = definitiv gelýst      2 = vermutlich gelýst      3 = weiý ich nicht mehr      4 = vermutlich NICHT gelýst      5 = definitiv NICHT gelýst
02/12/2023;14:40:20;103;84;2;visAHA;4;0;;2836;25;1PVIP_025_hare.new_gauss2.jpg
02/12/2023;14:40:20;103;85;2;visCATCH;5;1;;1653;35;3PVIP_005_dalmation8_gauss6.jpg
02/12/2023;14:40:20;103;86;2;visAHA;5;0;;2190;14;1PVIP_014_chipmunk_gauss2.jpg
02/12/2023;14:40:20;103;87;2;visCATCH;3;0;;2431;43;3PVIP_013_grasshopper.new_gauss3.jpg
02/12/2023;14:40:20;103;87;3;solution_solved_VIScatch;5;1;;580;1;Aufgabe im MRT GELýST?         1 = definitiv gelýst      2 = vermutlich gelýst      3 = weiý ich nicht mehr      4 = vermutlich NICHT gelýst      5 = definitiv NICHT gelýst
02/12/2023;14:40:20;103;88;2;visAHA;4;0;;2230;32;1PVIP_032_mountain_gauss3.5.jpg
02/12/2023;14:40:20;103;89;2;visCATCH;5;1;;2134;33;3PVIP_003_boat3.jpg
02/12/2023;14:40:20;103;90;2;visAHA;5;0;;2635;80;2PVIP_074_computer.jpg
02/12/2023;14:40:20;103;91;2;visCATCH;3;0;;1850;13;3PVIP_044_caterpillar.new_gauss3.jpg
02/12/2023;14:40:20;103;91;3;solution_solved_VIScatch;6;1;;408;1;Aufgabe im MRT GELýST?         1 = definitiv gelýst      2 = vermutlich gelýst      3 = weiý ich nicht mehr      4 = vermutlich NICHT gelýst      5 = definitiv NICHT gelýst
02/12/2023;14:40:20;103;92;2;visAHA;2;1;;4481;42;1PVIP_042_sheep1_gauss2.5.jpg
02/12/2023;14:40:20;103;92;3;solution_solved_VIS;6;0;;578;1;Aufgabe im MRT GELýST?         1 = definitiv gelýst      2 = vermutlich gelýst      3 = weiý ich nicht mehr      4 = vermutlich NICHT gelýst      5 = definitiv NICHT gelýst
02/12/2023;14:40:20;103;93;2;visAHA;6;0;;2566;95;2PVIP_090_hawk_gauss4.jpg
02/12/2023;14:40:20;103;94;2;visCATCH;3;0;;3203;3;3PVIP_034_axe.new_gauss2.jpg
02/12/2023;14:40:20;103;94;3;solution_solved_VIScatch;5;1;;541;1;Aufgabe im MRT GELýST?         1 = definitiv gelýst      2 = vermutlich gelýst      3 = weiý ich nicht mehr      4 = vermutlich NICHT gelýst      5 = definitiv NICHT gelýst
02/12/2023;14:40:20;103;95;2;visAHA;4;0;;2265;28;1PVIP_028_knife.new_gauss1.5.jpg
02/12/2023;14:40:20;103;96;2;visCATCH;4;1;;1580;26;3PVIP_058_violin_gauss5.jpg
02/12/2023;14:40:20;103;97;2;visAHA;2;1;;2309;66;2PVIP_060_bee2.jpg
02/12/2023;14:40:20;103;97;3;solution_solved_VIS;2;1;;405;1;Aufgabe im MRT GELýST?         1 = definitiv gelýst      2 = vermutlich gelýst      3 = weiý ich nicht mehr      4 = vermutlich NICHT gelýst      5 = definitiv NICHT gelýst
02/12/2023;14:40:20;103;97;4;solution_visAHA;Biene;0;1;2339;1;Bitte tippe Dein (damaliges) Lýsungswort hier ein:
02/12/2023;14:40:20;103;98;2;visCATCH;3;0;;3342;24;3PVIP_056_tractor_gauss4.jpg
02/12/2023;14:40:20;103;98;3;solution_solved_VIScatch;4;1;;465;1;Aufgabe im MRT GELýST?         1 = definitiv gelýst      2 = vermutlich gelýst      3 = weiý ich nicht mehr      4 = vermutlich NICHT gelýst      5 = definitiv NICHT gelýst
02/12/2023;14:40:20;103;99;2;visAHA;3;1;;1475;62;2PVIP_056_baby3_gauss5.jpg
02/12/2023;14:40:20;103;99;3;solution_solved_VIS;5;0;;410;1;Aufgabe im MRT GELýST?         1 = definitiv gelýst      2 = vermutlich gelýst      3 = weiý ich nicht mehr      4 = vermutlich NICHT gelýst      5 = definitiv NICHT gelýst
02/12/2023;14:40:20;103;100;2;visAHA;5;0;;2298;20;1PVIP_020_fork.jpg
02/12/2023;14:40:20;103;101;2;visCATCH;3;0;;2034;46;3PVIP_016_indri_gauss3.jpg
02/12/2023;14:40:20;103;101;3;solution_solved_VIScatch;6;1;;376;1;Aufgabe im MRT GELýST?         1 = definitiv gelýst      2 = vermutlich gelýst      3 = weiý ich nicht mehr      4 = vermutlich NICHT gelýst      5 = definitiv NICHT gelýst
02/12/2023;14:40:20;103;102;2;visAHA;5;0;;2391;64;2PVIP_058_bagpipe_gauss6.jpg
02/12/2023;14:40:20;103;103;2;visCATCH;6;1;;1734;2;3PVIP_033_auditorium1_gauss4.jpg
02/12/2023;14:40:20;103;104;2;visAHA;6;0;;2087;97;2PVIP_092_jet1_gauss5.jpg
02/12/2023;14:40:20;103;105;2;visAHA;3;1;;3382;46;1PVIP_046_tiger_gauss2.5.jpg
02/12/2023;14:40:20;103;105;3;solution_solved_VIS;4;0;;889;1;Aufgabe im MRT GELýST?         1 = definitiv gelýst      2 = vermutlich gelýst      3 = weiý ich nicht mehr      4 = vermutlich NICHT gelýst      5 = definitiv NICHT gelýst
02/12/2023;14:40:20;103;106;2;visCATCH;5;1;;2684;21;3PVIP_053_tent_gauss4.jpg
02/12/2023;14:40:20;103;107;2;visAHA;5;0;;2147;79;2PVIP_073_coffee_gauss5.jpg
02/12/2023;14:40:20;103;108;2;visCATCH;4;1;;2460;40;3PVIP_010_flamingo_gauss3.jpg
02/12/2023;14:40:20;103;109;2;visAHA;5;0;;2517;78;2PVIP_072_cigarette_gauss3.jpg
02/12/2023;14:40:20;103;110;2;visAHA;5;0;;1997;7;1PVIP_007_bird3.jpg
02/12/2023;14:40:20;103;111;2;visCATCH;4;1;;1322;36;3PVIP_006_dart2_gauss6.jpg
02/12/2023;14:40:20;103;112;2;visAHA;2;1;;1757;26;1PVIP_026_hedgehog.new_gauss2.jpg
02/12/2023;14:40:20;103;112;3;solution_solved_VIS;2;1;;748;1;Aufgabe im MRT GELýST?         1 = definitiv gelýst      2 = vermutlich gelýst      3 = weiý ich nicht mehr      4 = vermutlich NICHT gelýst      5 = definitiv NICHT gelýst
02/12/2023;14:40:20;103;112;4;solution_visAHA;Idel;0;1;1447;1;Bitte tippe Dein (damaliges) Lýsungswort hier ein:
02/12/2023;14:40:20;103;113;2;visCATCH;6;1;;2972;5;3PVIP_036_bat_gauss4.jpg
02/12/2023;14:40:20;103;114;2;visAHA;2;1;;1070;30;1PVIP_030_lion1_gauss2.5.jpg
02/12/2023;14:40:20;103;114;3;solution_solved_VIS;2;1;;869;1;Aufgabe im MRT GELýST?         1 = definitiv gelýst      2 = vermutlich gelýst      3 = weiý ich nicht mehr      4 = vermutlich NICHT gelýst      5 = definitiv NICHT gelýst
02/12/2023;14:40:20;103;114;4;solution_visAHA;Lýwe;0;1;1843;1;Bitte tippe Dein (damaliges) Lýsungswort hier ein:
02/12/2023;14:40:20;103;115;2;visCATCH;4;1;;1679;25;3PVIP_057_treemouse_gauss3.jpg
02/12/2023;14:40:20;103;116;2;visAHA;5;0;;2229;52;1PVIP_052_wolf2.jpg
02/12/2023;14:40:20;103;117;2;visAHA;3;1;;2037;27;1PVIP_027_squirrel.new_gauss4.jpg
02/12/2023;14:40:20;103;117;3;solution_solved_VIS;6;0;;411;1;Aufgabe im MRT GELýST?         1 = definitiv gelýst      2 = vermutlich gelýst      3 = weiý ich nicht mehr      4 = vermutlich NICHT gelýst      5 = definitiv NICHT gelýst
02/12/2023;14:40:20;103;118;2;visAHA;3;1;;1556;61;2PVIP_055_affe_gauss4.jpg
02/12/2023;14:40:20;103;118;3;solution_solved_VIS;5;0;;455;1;Aufgabe im MRT GELýST?         1 = definitiv gelýst      2 = vermutlich gelýst      3 = weiý ich nicht mehr      4 = vermutlich NICHT gelýst      5 = definitiv NICHT gelýst
02/12/2023;14:40:20;103;119;2;visAHA;2;1;;1133;93;2PVIP_088_gun.jpg
02/12/2023;14:40:20;103;119;3;solution_solved_VIS;3;1;;1594;1;Aufgabe im MRT GELýST?         1 = definitiv gelýst      2 = vermutlich gelýst      3 = weiý ich nicht mehr      4 = vermutlich NICHT gelýst      5 = definitiv NICHT gelýst
02/12/2023;14:40:20;103;119;4;solution_visAHA;Pistole;0;1;2056;1;Bitte tippe Dein (damaliges) Lýsungswort hier ein:
02/12/2023;14:40:20;103;120;2;visAHA;4;0;;1811;5;1PVIP_005_bell_gauss1.5.jpg
02/12/2023;14:40:20;103;121;2;visCATCH;4;1;;2240;12;3PVIP_043_candy_gauss3.jpg
02/12/2023;14:40:20;103;122;2;visAHA;5;0;;2229;96;2PVIP_091_horn.new_gauss3.jpg
02/12/2023;14:40:20;103;123;2;visCATCH;3;0;;1040;16;3PVIP_047_clown1_gauss4.jpg
02/12/2023;14:40:20;103;123;3;solution_solved_VIScatch;6;1;;349;1;Aufgabe im MRT GELýST?         1 = definitiv gelýst      2 = vermutlich gelýst      3 = weiý ich nicht mehr      4 = vermutlich NICHT gelýst      5 = definitiv NICHT gelýst
02/12/2023;14:40:20;103;124;2;visAHA;2;1;;1397;48;1PVIP_048_tomb_gauss3.jpg
02/12/2023;14:40:20;103;124;3;solution_solved_VIS;6;0;;396;1;Aufgabe im MRT GELýST?         1 = definitiv gelýst      2 = vermutlich gelýst      3 = weiý ich nicht mehr      4 = vermutlich NICHT gelýst      5 = definitiv NICHT gelýst
02/12/2023;14:40:20;103;125;2;visAHA;3;1;;1791;2;1PVIP_002_arrow_gauss2.jpg
02/12/2023;14:40:20;103;125;3;solution_solved_VIS;5;0;;999;1;Aufgabe im MRT GELýST?         1 = definitiv gelýst      2 = vermutlich gelýst      3 = weiý ich nicht mehr      4 = vermutlich NICHT gelýst      5 = definitiv NICHT gelýst
02/12/2023;14:40:20;103;126;2;visCATCH;3;0;;1043;14;3PVIP_045_chicken_gauss3.jpg
02/12/2023;14:40:20;103;126;3;solution_solved_VIScatch;6;1;;579;1;Aufgabe im MRT GELýST?         1 = definitiv gelýst      2 = vermutlich gelýst      3 = weiý ich nicht mehr      4 = vermutlich NICHT gelýst      5 = definitiv NICHT gelýst
02/12/2023;14:40:20;103;127;2;visAHA;2;1;;3244;57;1PVIP_117_pepper.jpg
02/12/2023;14:40:20;103;127;3;solution_solved_VIS;3;1;;792;1;Aufgabe im MRT GELýST?         1 = definitiv gelýst      2 = vermutlich gelýst      3 = weiý ich nicht mehr      4 = vermutlich NICHT gelýst      5 = definitiv NICHT gelýst
02/12/2023;14:40:20;103;127;4;solution_visAHA;Geige;0;0;5197;1;Bitte tippe Dein (damaliges) Lýsungswort hier ein:
02/12/2023;14:40:20;103;128;2;visAHA;3;1;;3183;89;2PVIP_084_fish1_gauss3.jpg
02/12/2023;14:40:20;103;128;3;solution_solved_VIS;6;0;;199;1;Aufgabe im MRT GELýST?         1 = definitiv gelýst      2 = vermutlich gelýst      3 = weiý ich nicht mehr      4 = vermutlich NICHT gelýst      5 = definitiv NICHT gelýst
02/12/2023;14:40:20;103;129;2;visCATCH;4;1;;2680;30;3PVIP_062_zebra2_gauss12.jpg
02/12/2023;14:40:20;103;130;2;visAHA;5;0;;1764;72;2PVIP_066_burro1_gauss3.jpg
02/12/2023;14:40:20;103;131;2;visAHA;3;1;;1577;45;1PVIP_045_spider.new_gauss1.jpg
02/12/2023;14:40:20;103;131;3;solution_solved_VIS;6;0;;939;1;Aufgabe im MRT GELýST?         1 = definitiv gelýst      2 = vermutlich gelýst      3 = weiý ich nicht mehr      4 = vermutlich NICHT gelýst      5 = definitiv NICHT gelýst
02/12/2023;14:40:20;103;132;2;visAHA;3;1;;1993;88;2PVIP_083_eye.new_gauss2.jpg
02/12/2023;14:40:20;103;132;3;solution_solved_VIS;5;0;;829;1;Aufgabe im MRT GELýST?         1 = definitiv gelýst      2 = vermutlich gelýst      3 = weiý ich nicht mehr      4 = vermutlich NICHT gelýst      5 = definitiv NICHT gelýst
02/12/2023;14:40:20;103;133;2;visCATCH;3;0;;2613;56;3PVIP_027_pangolins_gauss4.jpg
02/12/2023;14:40:20;103;133;3;solution_solved_VIScatch;5;1;;377;1;Aufgabe im MRT GELýST?         1 = definitiv gelýst      2 = vermutlich gelýst      3 = weiý ich nicht mehr      4 = vermutlich NICHT gelýst      5 = definitiv NICHT gelýst
02/12/2023;14:40:20;103;134;2;visAHA;6;0;;1175;106;2PVIP_101_orange.jpg
02/12/2023;14:40:20;103;135;2;visCATCH;6;1;;1066;57;3PVIP_028_peach_gauss3.jpg
02/12/2023;14:40:20;103;136;2;visAHA;2;1;;1173;6;1PVIP_006_bike.jpg
02/12/2023;14:40:20;103;136;3;solution_solved_VIS;5;0;;1617;1;Aufgabe im MRT GELýST?         1 = definitiv gelýst      2 = vermutlich gelýst      3 = weiý ich nicht mehr      4 = vermutlich NICHT gelýst      5 = definitiv NICHT gelýst
02/12/2023;14:40:20;103;137;2;visAHA;6;0;;2249;60;1PVIP_120_toaster.jpg
02/12/2023;14:40:20;103;138;2;visCATCH;3;0;;1276;7;3PVIP_038_beaver2_gauss4.jpg
02/12/2023;14:40:20;103;138;3;solution_solved_VIScatch;4;1;;954;1;Aufgabe im MRT GELýST?         1 = definitiv gelýst      2 = vermutlich gelýst      3 = weiý ich nicht mehr      4 = vermutlich NICHT gelýst      5 = definitiv NICHT gelýst
02/12/2023;14:40:20;103;139;2;visAHA;5;0;;1641;99;2PVIP_094_kettle2_gauss3.jpg
02/12/2023;14:40:20;103;140;2;visCATCH;3;0;;1425;50;3PVIP_021_leaf_gauss5.jpg
02/12/2023;14:40:20;103;140;3;solution_solved_VIScatch;4;1;;427;1;Aufgabe im MRT GELýST?         1 = definitiv gelýst      2 = vermutlich gelýst      3 = weiý ich nicht mehr      4 = vermutlich NICHT gelýst      5 = definitiv NICHT gelýst
02/12/2023;14:40:20;103;141;2;visAHA;2;1;;3969;71;2PVIP_065_bulldog5_gauss3.jpg
02/12/2023;14:40:20;103;141;3;solution_solved_VIS;5;0;;327;1;Aufgabe im MRT GELýST?         1 = definitiv gelýst      2 = vermutlich gelýst      3 = weiý ich nicht mehr      4 = vermutlich NICHT gelýst      5 = definitiv NICHT gelýst
02/12/2023;14:40:20;103;142;2;visCATCH;5;1;;1958;34;3PVIP_004_crab.new_gauss2.jpg
02/12/2023;14:40:20;103;143;2;visAHA;5;0;;596;110;2PVIP_105_puppy1_gauss3.jpg
02/12/2023;14:40:20;103;144;2;visAHA;2;1;;634;104;2PVIP_099_metro_gauss2.jpg
02/12/2023;14:40:20;103;144;3;solution_solved_VIS;6;0;;760;1;Aufgabe im MRT GELýST?         1 = definitiv gelýst      2 = vermutlich gelýst      3 = weiý ich nicht mehr      4 = vermutlich NICHT gelýst      5 = definitiv NICHT gelýst
02/12/2023;14:40:20;103;145;2;visCATCH;6;1;;1093;45;3PVIP_015_horse.new_gauss3.jpg
02/12/2023;14:40:20;103;146;2;visAHA;3;1;;2099;21;1PVIP_021_fox1_gauss1.jpg
02/12/2023;14:40:20;103;146;3;solution_solved_VIS;5;0;;483;1;Aufgabe im MRT GELýST?         1 = definitiv gelýst      2 = vermutlich gelýst      3 = weiý ich nicht mehr      4 = vermutlich NICHT gelýst      5 = definitiv NICHT gelýst
02/12/2023;14:40:20;103;147;2;visAHA;5;0;;2188;91;2PVIP_086_girl.jpg
02/12/2023;14:40:20;103;148;2;visAHA;3;1;;1627;35;1PVIP_035_orchid_gauss1.jpg
02/12/2023;14:40:20;103;148;3;solution_solved_VIS;4;0;;6;1;Aufgabe im MRT GELýST?         1 = definitiv gelýst      2 = vermutlich gelýst      3 = weiý ich nicht mehr      4 = vermutlich NICHT gelýst      5 = definitiv NICHT gelýst
02/12/2023;14:40:20;103;149;2;visCATCH;6;1;;2527;44;3PVIP_014_gun_gauss3.jpg
02/12/2023;14:40:20;103;150;2;visAHA;3;1;;2152;74;2PVIP_068_carafe3.jpg
02/12/2023;14:40:20;103;150;3;solution_solved_VIS;6;0;;377;1;Aufgabe im MRT GELýST?         1 = definitiv gelýst      2 = vermutlich gelýst      3 = weiý ich nicht mehr      4 = vermutlich NICHT gelýst      5 = definitiv NICHT gelýst
02/12/2023;14:40:20;103;151;2;visCATCH;6;1;;2786;52;3PVIP_023_lobster_gauss6.jpg
02/12/2023;14:40:20;103;152;2;visAHA;3;1;;1267;118;2PVIP_113_whale.jpg
02/12/2023;14:40:20;103;152;3;solution_solved_VIS;6;0;;776;1;Aufgabe im MRT GELýST?         1 = definitiv gelýst      2 = vermutlich gelýst      3 = weiý ich nicht mehr      4 = vermutlich NICHT gelýst      5 = definitiv NICHT gelýst
02/12/2023;14:40:20;103;153;2;visCATCH;2;0;;3700;18;3PVIP_050_sloth_gauss4.jpg
02/12/2023;14:40:20;103;153;3;solution_solved_VIScatch;6;1;;304;1;Aufgabe im MRT GELýST?         1 = definitiv gelýst      2 = vermutlich gelýst      3 = weiý ich nicht mehr      4 = vermutlich NICHT gelýst      5 = definitiv NICHT gelýst
02/12/2023;14:40:20;103;154;2;visAHA;3;1;;1565;50;1PVIP_050_typewriter_gauss5.5.jpg
02/12/2023;14:40:20;103;154;3;solution_solved_VIS;4;0;;1660;1;Aufgabe im MRT GELýST?         1 = definitiv gelýst      2 = vermutlich gelýst      3 = weiý ich nicht mehr      4 = vermutlich NICHT gelýst      5 = definitiv NICHT gelýst
02/12/2023;14:40:20;103;155;2;visCATCH;3;0;;2593;38;3PVIP_008_duck.new_gauss2.jpg
02/12/2023;14:40:20;103;155;3;solution_solved_VIScatch;6;1;;275;1;Aufgabe im MRT GELýST?         1 = definitiv gelýst      2 = vermutlich gelýst      3 = weiý ich nicht mehr      4 = vermutlich NICHT gelýst      5 = definitiv NICHT gelýst
02/12/2023;14:40:20;103;156;2;visAHA;5;0;;4379;24;1PVIP_024_hamster2_gauss1.5.jpg
02/12/2023;14:40:20;103;157;2;visCATCH;3;0;;2000;9;3PVIP_040_blossom2_gauss2.jpg
02/12/2023;14:40:20;103;157;3;solution_solved_VIScatch;5;1;;440;1;Aufgabe im MRT GELýST?         1 = definitiv gelýst      2 = vermutlich gelýst      3 = weiý ich nicht mehr      4 = vermutlich NICHT gelýst      5 = definitiv NICHT gelýst
02/12/2023;14:40:20;103;158;2;visAHA;3;1;;1763;11;1PVIP_011_butterfly2.jpg
02/12/2023;14:40:20;103;158;3;solution_solved_VIS;6;0;;405;1;Aufgabe im MRT GELýST?         1 = definitiv gelýst      2 = vermutlich gelýst      3 = weiý ich nicht mehr      4 = vermutlich NICHT gelýst      5 = definitiv NICHT gelýst
02/12/2023;14:40:20;103;159;2;visCATCH;2;0;;2948;27;3PVIP_059_wateringcan_gauss4.jpg
02/12/2023;14:40:20;103;159;3;solution_solved_VIScatch;5;1;;232;1;Aufgabe im MRT GELýST?         1 = definitiv gelýst      2 = vermutlich gelýst      3 = weiý ich nicht mehr      4 = vermutlich NICHT gelýst      5 = definitiv NICHT gelýst
02/12/2023;14:40:20;103;160;2;visAHA;2;1;;1048;70;2PVIP_064_bridge_gauss2.5.jpg
02/12/2023;14:40:20;103;160;3;solution_solved_VIS;6;0;;612;1;Aufgabe im MRT GELýST?         1 = definitiv gelýst      2 = vermutlich gelýst      3 = weiý ich nicht mehr      4 = vermutlich NICHT gelýst      5 = definitiv NICHT gelýst
02/12/2023;14:40:20;103;161;2;visAHA;6;0;;2063;82;2PVIP_076_computer.new_gauss5.jpg
02/12/2023;14:40:20;103;162;2;visCATCH;3;0;;1907;58;3PVIP_029_pig_gauss3.jpg
02/12/2023;14:40:20;103;162;3;solution_solved_VIScatch;4;1;;1579;1;Aufgabe im MRT GELýST?         1 = definitiv gelýst      2 = vermutlich gelýst      3 = weiý ich nicht mehr      4 = vermutlich NICHT gelýst      5 = definitiv NICHT gelýst
02/12/2023;14:40:20;103;163;2;visAHA;4;0;;3287;63;2PVIP_057_bag.jpg
02/12/2023;14:40:20;103;164;2;visCATCH;6;1;;925;37;3PVIP_007_dolphin.new_gauss3.jpg
02/12/2023;14:40:20;103;165;2;visAHA;3;1;;3754;10;1PVIP_010_brain_gauss3.jpg
02/12/2023;14:40:20;103;165;3;solution_solved_VIS;6;0;;952;1;Aufgabe im MRT GELýST?         1 = definitiv gelýst      2 = vermutlich gelýst      3 = weiý ich nicht mehr      4 = vermutlich NICHT gelýst      5 = definitiv NICHT gelýst
02/12/2023;14:40:20;103;166;2;visCATCH;6;1;;1612;8;3PVIP_039_birdie_gauss7.jpg
02/12/2023;14:40:20;103;167;2;visAHA;2;1;;2358;67;2PVIP_061_boat_gauss3.jpg
02/12/2023;14:40:20;103;167;3;solution_solved_VIS;6;0;;632;1;Aufgabe im MRT GELýST?         1 = definitiv gelýst      2 = vermutlich gelýst      3 = weiý ich nicht mehr      4 = vermutlich NICHT gelýst      5 = definitiv NICHT gelýst
02/12/2023;14:40:20;103;168;2;visCATCH;6;1;;1695;28;3PVIP_060_wine2_gauss5.jpg
02/12/2023;14:40:20;103;169;2;visAHA;2;1;;1034;36;1PVIP_036_pen2.jpg
02/12/2023;14:40:20;103;169;3;solution_solved_VIS;6;0;;1652;1;Aufgabe im MRT GELýST?         1 = definitiv gelýst      2 = vermutlich gelýst      3 = weiý ich nicht mehr      4 = vermutlich NICHT gelýst      5 = definitiv NICHT gelýst
02/12/2023;14:40:20;103;170;2;visCATCH;3;0;;1379;60;3PVIP_031_prison_gauss7.jpg
02/12/2023;14:40:20;103;170;3;solution_solved_VIScatch;6;1;;452;1;Aufgabe im MRT GELýST?         1 = definitiv gelýst      2 = vermutlich gelýst      3 = weiý ich nicht mehr      4 = vermutlich NICHT gelýst      5 = definitiv NICHT gelýst
02/12/2023;14:40:20;103;171;2;visAHA;6;0;;1355;8;1PVIP_008_boat2.jpg
02/12/2023;14:40:20;103;172;2;visCATCH;6;1;;1438;20;3PVIP_052_cat3.jpg
02/12/2023;14:40:20;103;173;2;visAHA;6;0;;861;76;2PVIP_070_cauliflower.new_gauss3.jpg
02/12/2023;14:40:20;103;174;2;visAHA;2;1;;1132;37;1PVIP_037_pfau_gauss3.jpg
02/12/2023;14:40:20;103;174;3;solution_solved_VIS;6;0;;788;1;Aufgabe im MRT GELýST?         1 = definitiv gelýst      2 = vermutlich gelýst      3 = weiý ich nicht mehr      4 = vermutlich NICHT gelýst      5 = definitiv NICHT gelýst
02/12/2023;14:40:20;103;175;2;visAHA;4;0;;2064;47;1PVIP_047_toad2_gauss1.jpg
02/12/2023;14:40:20;103;176;2;visCATCH;6;1;;2476;39;3PVIP_009_erdmaennchen_gauss2.jpg
02/12/2023;14:40:20;103;177;2;visAHA;2;1;;1900;16;1PVIP_016_crone_gauss1.5.jpg
02/12/2023;14:40:20;103;177;3;solution_solved_VIS;3;1;;408;1;Aufgabe im MRT GELýST?         1 = definitiv gelýst      2 = vermutlich gelýst      3 = weiý ich nicht mehr      4 = vermutlich NICHT gelýst      5 = definitiv NICHT gelýst
02/12/2023;14:40:20;103;177;4;solution_visAHA;Boot;0;0;1904;1;Bitte tippe Dein (damaliges) Lýsungswort hier ein:
02/12/2023;14:40:20;103;178;2;visCATCH;5;1;;1948;55;3PVIP_026_moth.new_gauss4.jpg
02/12/2023;14:40:20;103;179;2;visAHA;2;1;;1322;120;2PVIP_115_woman.jpg
02/12/2023;14:40:20;103;179;3;solution_solved_VIS;5;0;;381;1;Aufgabe im MRT GELýST?         1 = definitiv gelýst      2 = vermutlich gelýst      3 = weiý ich nicht mehr      4 = vermutlich NICHT gelýst      5 = definitiv NICHT gelýst
02/12/2023;14:40:20;103;180;2;visCATCH;5;1;;3211;22;3PVIP_054_nashorn_gauss4.jpg
02/12/2023;14:40:20;103;181;2;visAHA;3;1;;1575;87;2PVIP_081_elephant2_gauss2.jpg
02/12/2023;14:40:20;103;181;3;solution_solved_VIS;5;0;;722;1;Aufgabe im MRT GELýST?         1 = definitiv gelýst      2 = vermutlich gelýst      3 = weiý ich nicht mehr      4 = vermutlich NICHT gelýst      5 = definitiv NICHT gelýst
02/12/2023;16:17:15;105;2;2;visAHA;6;0;;30834;2;1PVIP_002_arrow_gauss2.jpg
02/12/2023;16:17:15;105;3;2;visCATCH;5;1;;1283;10;3PVIP_041_bouquet1_gauss2.jpg
02/12/2023;16:17:15;105;4;2;visAHA;3;1;;933;63;2PVIP_057_bag.jpg
02/12/2023;16:17:15;105;4;3;solution_solved_VIS;3;1;;3529;1;Aufgabe im MRT GELýST?         1 = definitiv gelýst      2 = vermutlich gelýst      3 = weiý ich nicht mehr      4 = vermutlich NICHT gelýst      5 = definitiv NICHT gelýst
02/12/2023;16:17:15;105;4;4;solution_visAHA;Schlitten;0;0;3861;1;Bitte tippe Dein (damaliges) Lýsungswort hier ein:
02/12/2023;16:17:15;105;5;2;visCATCH;6;1;;1653;20;3PVIP_052_cat3.jpg
02/12/2023;16:17:15;105;6;2;visAHA;6;0;;764;66;2PVIP_060_bee2.jpg
02/12/2023;16:17:15;105;7;2;visCATCH;4;1;;1122;58;3PVIP_029_pig_gauss3.jpg
02/12/2023;16:17:15;105;8;2;visAHA;2;1;;834;108;2PVIP_103_panda_gauss6.jpg
02/12/2023;16:17:15;105;8;3;solution_solved_VIS;6;0;;3954;1;Aufgabe im MRT GELýST?         1 = definitiv gelýst      2 = vermutlich gelýst      3 = weiý ich nicht mehr      4 = vermutlich NICHT gelýst      5 = definitiv NICHT gelýst
02/12/2023;16:17:15;105;9;2;visAHA;5;0;;428;4;1PVIP_004_beetle1_gauss2.5.jpg
02/12/2023;16:17:15;105;10;2;visCATCH;4;1;;261;16;3PVIP_047_clown1_gauss4.jpg
02/12/2023;16:17:15;105;11;2;visAHA;6;0;;730;41;1PVIP_041_rose.jpg
02/12/2023;16:17:15;105;12;2;visAHA;6;0;;391;95;2PVIP_090_hawk_gauss4.jpg
02/12/2023;16:17:15;105;13;2;visCATCH;5;1;;298;5;3PVIP_036_bat_gauss4.jpg
02/12/2023;16:17:15;105;14;2;visAHA;4;0;;121;96;2PVIP_091_horn.new_gauss3.jpg
02/12/2023;16:17:15;105;15;2;visAHA;2;1;;1219;46;1PVIP_046_tiger_gauss2.5.jpg
02/12/2023;16:17:15;105;15;3;solution_solved_VIS;2;1;;1383;1;Aufgabe im MRT GELýST?         1 = definitiv gelýst      2 = vermutlich gelýst      3 = weiý ich nicht mehr      4 = vermutlich NICHT gelýst      5 = definitiv NICHT gelýst
02/12/2023;16:17:15;105;15;4;solution_visAHA;Tiger;0;1;1208;1;Bitte tippe Dein (damaliges) Lýsungswort hier ein:
02/12/2023;16:17:15;105;16;2;visCATCH;5;1;;3469;4;3PVIP_035_basket_gauss3.jpg
02/12/2023;16:17:15;105;17;2;visAHA;6;0;;266;54;1PVIP_054_toilet_gauss5.jpg
02/12/2023;16:17:15;105;18;2;visAHA;6;0;;182;55;1PVIP_082_erdbeere_gauss1.jpg
02/12/2023;16:17:15;105;19;2;visCATCH;6;1;;44;40;3PVIP_010_flamingo_gauss3.jpg
02/12/2023;16:17:15;105;20;2;visAHA;5;0;;339;33;1PVIP_033_nashorn_gauss2.jpg
02/12/2023;16:17:15;105;21;2;visCATCH;5;1;;520;52;3PVIP_023_lobster_gauss6.jpg
02/12/2023;16:17:15;105;22;2;visAHA;6;0;;437;68;2PVIP_062_book2_gauss3.5.jpg
02/12/2023;16:17:15;105;23;2;visAHA;4;0;;381;84;2PVIP_078_crocodile2_gauss2.jpg
02/12/2023;16:17:15;105;24;2;visAHA;5;0;;491;93;2PVIP_088_gun.jpg
02/12/2023;16:17:15;105;25;2;visCATCH;6;1;;1016;33;3PVIP_003_boat3.jpg
02/12/2023;16:17:15;105;26;2;visAHA;6;0;;216;80;2PVIP_074_computer.jpg
02/12/2023;16:17:15;105;27;2;visAHA;4;0;;395;9;1PVIP_009_railroad_gauss5.jpg
02/12/2023;16:17:15;105;28;2;visCATCH;5;1;;237;48;3PVIP_018_kameleon1_gauss4.jpg
02/12/2023;16:17:15;105;29;2;visAHA;6;0;;447;45;1PVIP_045_spider.new_gauss1.jpg
02/12/2023;16:17:15;105;30;2;visCATCH;6;1;;1306;24;3PVIP_056_tractor_gauss4.jpg
02/12/2023;16:17:15;105;31;2;visAHA;5;0;;259;107;2PVIP_102_owl_gauss4.jpg
02/12/2023;16:17:15;105;32;2;visAHA;6;0;;56;70;2PVIP_064_bridge_gauss2.5.jpg
02/12/2023;16:17:15;105;33;2;visAHA;4;0;;491;18;1PVIP_018_dog3_gauss2.5.jpg
02/12/2023;16:17:15;105;34;2;visCATCH;5;1;;107;44;3PVIP_014_gun_gauss3.jpg
02/12/2023;16:17:15;105;35;2;visAHA;6;0;;1593;57;1PVIP_117_pepper.jpg
02/12/2023;16:17:15;105;36;2;visAHA;6;0;;169;100;2PVIP_095_knob_gauss1.jpg
02/12/2023;16:17:15;105;37;2;visAHA;5;0;;1385;52;1PVIP_052_wolf2.jpg
02/12/2023;16:17:15;105;38;2;visCATCH;6;1;;407;60;3PVIP_031_prison_gauss7.jpg
02/12/2023;16:17:15;105;39;2;visAHA;6;0;;168;89;2PVIP_084_fish1_gauss3.jpg
02/12/2023;16:17:15;105;40;2;visAHA;6;0;;148;91;2PVIP_086_girl.jpg
02/12/2023;16:17:15;105;41;2;visCATCH;6;1;;396;26;3PVIP_058_violin_gauss5.jpg
02/12/2023;16:17:15;105;42;2;visAHA;6;0;;89;37;1PVIP_037_pfau_gauss3.jpg
02/12/2023;16:17:15;105;43;2;visAHA;4;0;;724;73;2PVIP_067_carafe2.jpg
02/12/2023;16:17:15;105;44;2;visCATCH;5;1;;573;27;3PVIP_059_wateringcan_gauss4.jpg
02/12/2023;16:17:15;105;45;2;visAHA;2;1;;1317;115;2PVIP_110_ski.new_gauss1.jpg
02/12/2023;16:17:15;105;45;3;solution_solved_VIS;2;1;;1220;1;Aufgabe im MRT GELýST?         1 = definitiv gelýst      2 = vermutlich gelýst      3 = weiý ich nicht mehr      4 = vermutlich NICHT gelýst      5 = definitiv NICHT gelýst
02/12/2023;16:17:15;105;45;4;solution_visAHA;SKier;0;1;1122;1;Bitte tippe Dein (damaliges) Lýsungswort hier ein:
02/12/2023;16:17:15;105;46;2;visCATCH;5;1;;280;21;3PVIP_053_tent_gauss4.jpg
02/12/2023;16:17:15;105;47;2;visAHA;4;0;;213;35;1PVIP_035_orchid_gauss1.jpg
02/12/2023;16:17:15;105;48;2;visAHA;6;0;;1434;119;2PVIP_114_wolf3.jpg
02/12/2023;16:17:15;105;49;2;visAHA;4;0;;984;112;2PVIP_107_scorpion_gauss8.jpg
02/12/2023;16:17:15;105;50;2;visCATCH;6;1;;116;14;3PVIP_045_chicken_gauss3.jpg
02/12/2023;16:17:15;105;51;2;visAHA;5;0;;1289;120;2PVIP_115_woman.jpg
02/12/2023;16:17:15;105;52;2;visAHA;6;0;;345;43;1PVIP_043_snail.new_gauss2.5.jpg
02/12/2023;16:17:15;105;53;2;visAHA;6;0;;3199;16;1PVIP_016_crone_gauss1.5.jpg
02/12/2023;16:17:15;105;54;2;visCATCH;6;1;;150;39;3PVIP_009_erdmaennchen_gauss2.jpg
02/12/2023;16:17:15;105;55;2;visAHA;6;0;;1618;77;2PVIP_071_chair1_gauss3.jpg
02/12/2023;16:17:15;105;56;2;visCATCH;5;1;;809;30;3PVIP_062_zebra2_gauss12.jpg
02/12/2023;16:17:15;105;57;2;visAHA;4;0;;1290;21;1PVIP_021_fox1_gauss1.jpg
02/12/2023;16:17:15;105;58;2;visCATCH;6;1;;1084;37;3PVIP_007_dolphin.new_gauss3.jpg
02/12/2023;16:17:15;105;59;2;visAHA;6;0;;1425;92;2PVIP_087_goat_gauss5.jpg
02/12/2023;16:17:15;105;60;2;visCATCH;5;1;;637;56;3PVIP_027_pangolins_gauss4.jpg
02/12/2023;16:17:15;105;61;2;visAHA;6;0;;1703;27;1PVIP_027_squirrel.new_gauss4.jpg
02/12/2023;16:17:15;105;62;2;visAHA;5;0;;1342;31;1PVIP_031_lizard_gauss2.jpg
02/12/2023;16:17:15;105;63;2;visAHA;6;0;;1307;118;2PVIP_113_whale.jpg
02/12/2023;16:17:15;105;64;2;visCATCH;4;1;;2245;11;3PVIP_042_bread2_gauss2.jpg
02/12/2023;16:17:15;105;65;2;visAHA;6;0;;486;51;1PVIP_051_wheat_gauss1.5.jpg
02/12/2023;16:17:15;105;66;2;visCATCH;5;1;;736;32;3PVIP_002_cockpit_gauss3.jpg
02/12/2023;16:17:15;105;67;2;visAHA;6;0;;284;12;1PVIP_012_cabin2.jpg
02/12/2023;16:17:15;105;68;2;visCATCH;6;1;;502;7;3PVIP_038_beaver2_gauss4.jpg
02/12/2023;16:17:15;105;69;2;visAHA;6;0;;954;40;1PVIP_040_robbe_gauss3.jpg
02/12/2023;16:17:15;105;70;2;visAHA;4;0;;281;105;2PVIP_100_mirror_gauss4.jpg
02/12/2023;16:17:15;105;71;2;visCATCH;5;1;;2905;49;3PVIP_020_key_gauss3.jpg
02/12/2023;16:17:15;105;72;2;visAHA;6;0;;3523;5;1PVIP_005_bell_gauss1.5.jpg
02/12/2023;16:17:15;105;73;2;visCATCH;6;1;;699;18;3PVIP_050_sloth_gauss4.jpg
02/12/2023;16:17:15;105;74;2;visAHA;6;0;;1109;98;2PVIP_093_kamel_gauss1.5.jpg
02/12/2023;16:17:15;105;75;2;visAHA;4;0;;1761;85;2PVIP_079_drumset_gauss5.jpg
02/12/2023;16:17:15;105;76;2;visCATCH;6;1;;2952;8;3PVIP_039_birdie_gauss7.jpg
02/12/2023;16:17:15;105;77;2;visAHA;4;0;;1416;99;2PVIP_094_kettle2_gauss3.jpg
02/12/2023;16:17:15;105;78;2;visCATCH;6;1;;2117;34;3PVIP_004_crab.new_gauss2.jpg
02/12/2023;16:17:15;105;79;2;visAHA;5;0;;12995;64;2PVIP_058_bagpipe_gauss6.jpg
02/12/2023;16:17:15;105;80;2;visAHA;4;0;;799;19;1PVIP_019_elephant1_gauss2.jpg
02/12/2023;16:17:15;105;81;2;visAHA;6;0;;535;48;1PVIP_048_tomb_gauss3.jpg
02/12/2023;16:17:15;105;82;2;visAHA;6;0;;761;39;1PVIP_039_rat_gauss1.jpg
02/12/2023;16:17:15;105;83;2;visCATCH;4;1;;53;59;3PVIP_030_pigeon_gauss4.jpg
02/12/2023;16:17:15;105;84;2;visAHA;5;0;;284;87;2PVIP_081_elephant2_gauss2.jpg
02/12/2023;16:17:15;105;85;2;visCATCH;6;1;;360;29;3PVIP_061_wing1_gauss4.jpg
02/12/2023;16:17:15;105;86;2;visAHA;6;0;;323;44;1PVIP_044_snake_gauss1.5.jpg
02/12/2023;16:17:15;105;87;2;visCATCH;6;1;;332;47;3PVIP_017_iron_gauss3.jpg
02/12/2023;16:17:15;105;88;2;visAHA;5;0;;693;83;2PVIP_077_cow3.jpg
02/12/2023;16:17:15;105;89;2;visCATCH;4;1;;72;46;3PVIP_016_indri_gauss3.jpg
02/12/2023;16:17:15;105;90;2;visAHA;6;0;;337;109;2PVIP_104_piano.jpg
02/12/2023;16:17:15;105;91;2;visAHA;2;1;;2555;71;2PVIP_065_bulldog5_gauss3.jpg
02/12/2023;16:17:15;105;91;3;solution_solved_VIS;2;1;;1050;1;Aufgabe im MRT GELýST?         1 = definitiv gelýst      2 = vermutlich gelýst      3 = weiý ich nicht mehr      4 = vermutlich NICHT gelýst      5 = definitiv NICHT gelýst
02/12/2023;16:17:15;105;91;4;solution_visAHA;Nashorn;0;0;4472;1;Bitte tippe Dein (damaliges) Lýsungswort hier ein:
02/12/2023;16:17:15;105;92;2;visAHA;6;0;;214;26;1PVIP_026_hedgehog.new_gauss2.jpg
02/12/2023;16:17:15;105;93;2;visAHA;6;0;;555;97;2PVIP_092_jet1_gauss5.jpg
02/12/2023;16:17:15;105;94;2;visCATCH;4;1;;854;53;3PVIP_024_mole_gauss2.jpg
02/12/2023;16:17:15;105;95;2;visAHA;3;1;;167;101;2PVIP_096_lamb_gauss3.jpg
02/12/2023;16:17:15;105;95;3;solution_solved_VIS;5;0;;867;1;Aufgabe im MRT GELýST?         1 = definitiv gelýst      2 = vermutlich gelýst      3 = weiý ich nicht mehr      4 = vermutlich NICHT gelýst      5 = definitiv NICHT gelýst
02/12/2023;16:17:15;105;96;2;visAHA;6;0;;347;82;2PVIP_076_computer.new_gauss5.jpg
02/12/2023;16:17:15;105;97;2;visAHA;2;1;;438;58;1PVIP_118_phone_gauss5.jpg
02/12/2023;16:17:15;105;97;3;solution_solved_VIS;4;0;;328;1;Aufgabe im MRT GELýST?         1 = definitiv gelýst      2 = vermutlich gelýst      3 = weiý ich nicht mehr      4 = vermutlich NICHT gelýst      5 = definitiv NICHT gelýst
02/12/2023;16:17:15;105;98;2;visCATCH;5;1;;439;57;3PVIP_028_peach_gauss3.jpg
02/12/2023;16:17:15;105;99;2;visAHA;3;1;;452;69;2PVIP_063_brick_gauss5.jpg
02/12/2023;16:17:15;105;99;3;solution_solved_VIS;6;0;;788;1;Aufgabe im MRT GELýST?         1 = definitiv gelýst      2 = vermutlich gelýst      3 = weiý ich nicht mehr      4 = vermutlich NICHT gelýst      5 = definitiv NICHT gelýst
02/12/2023;16:17:15;105;100;2;visAHA;5;0;;55;94;2PVIP_089_hammer_gauss2.jpg
02/12/2023;16:17:15;105;101;2;visAHA;4;0;;108;32;1PVIP_032_mountain_gauss3.5.jpg
02/12/2023;16:17:15;105;102;2;visCATCH;6;1;;341;55;3PVIP_026_moth.new_gauss4.jpg
02/12/2023;16:17:15;105;103;2;visAHA;5;0;;508;20;1PVIP_020_fork.jpg
02/12/2023;16:17:15;105;104;2;visAHA;6;0;;304;25;1PVIP_025_hare.new_gauss2.jpg
02/12/2023;16:17:15;105;105;2;visCATCH;5;1;;1202;15;3PVIP_046_christ47_gauss2.jpg
02/12/2023;16:17:15;105;106;2;visAHA;6;0;;478;17;1PVIP_017_deer2_gauss1.jpg
02/12/2023;16:17:15;105;107;2;visCATCH;4;1;;2;28;3PVIP_060_wine2_gauss5.jpg
02/12/2023;16:17:15;105;108;2;visAHA;5;0;;2047;7;1PVIP_007_bird3.jpg
02/12/2023;16:17:15;105;109;2;visCATCH;6;1;;35;22;3PVIP_054_nashorn_gauss4.jpg
02/12/2023;16:17:15;105;110;2;visAHA;5;0;;303;75;2PVIP_069_cat2.jpg
02/12/2023;16:17:15;105;111;2;visCATCH;5;1;;718;31;3PVIP_001_cockatoo.new_gauss4.jpg
02/12/2023;16:17:15;105;112;2;visAHA;4;0;;1103;13;1PVIP_013_cat.new_gauss3.jpg
02/12/2023;16:17:15;105;113;2;visAHA;6;0;;503;36;1PVIP_036_pen2.jpg
02/12/2023;16:17:15;105;114;2;visCATCH;5;1;;66;23;3PVIP_055_tongue_gauss2.jpg
02/12/2023;16:17:15;105;115;2;visAHA;4;0;;106;60;1PVIP_120_toaster.jpg
02/12/2023;16:17:15;105;116;2;visCATCH;5;1;;149;13;3PVIP_044_caterpillar.new_gauss3.jpg
02/12/2023;16:17:15;105;117;2;visAHA;4;0;;171;42;1PVIP_042_sheep1_gauss2.5.jpg
02/12/2023;16:17:15;105;118;2;visAHA;6;0;;154;6;1PVIP_006_bike.jpg
02/12/2023;16:17:15;105;119;2;visAHA;5;0;;789;11;1PVIP_011_butterfly2.jpg
02/12/2023;16:17:15;105;120;2;visAHA;5;0;;660;22;1PVIP_022_frog2_gauss4.jpg
02/12/2023;16:17:15;105;121;2;visCATCH;4;1;;773;1;3PVIP_032_ameise_gauss2.jpg
02/12/2023;16:17:15;105;122;2;visAHA;2;1;;1862;106;2PVIP_101_orange.jpg
02/12/2023;16:17:15;105;122;3;solution_solved_VIS;4;0;;342;1;Aufgabe im MRT GELýST?         1 = definitiv gelýst      2 = vermutlich gelýst      3 = weiý ich nicht mehr      4 = vermutlich NICHT gelýst      5 = definitiv NICHT gelýst
02/12/2023;16:17:15;105;123;2;visCATCH;5;1;;1728;6;3PVIP_037_beard2_gauss5.jpg
02/12/2023;16:17:15;105;124;2;visAHA;6;0;;1228;30;1PVIP_030_lion1_gauss2.5.jpg
02/12/2023;16:17:15;105;125;2;visAHA;4;0;;286;38;1PVIP_038_python2_gauss2.jpg
02/12/2023;16:17:15;105;126;2;visCATCH;5;1;;120;42;3PVIP_012_forceps_gauss4.jpg
02/12/2023;16:17:15;105;127;2;visAHA;6;0;;1126;81;2PVIP_075_chair3_gauss5.jpg
02/12/2023;16:17:15;105;128;2;visAHA;2;1;;138;113;2PVIP_108_shark1_gauss3.jpg
02/12/2023;16:17:15;105;128;3;solution_solved_VIS;5;0;;236;1;Aufgabe im MRT GELýST?         1 = definitiv gelýst      2 = vermutlich gelýst      3 = weiý ich nicht mehr      4 = vermutlich NICHT gelýst      5 = definitiv NICHT gelýst
02/12/2023;16:17:15;105;129;2;visCATCH;4;1;;545;54;3PVIP_025_moose.new_gauss5.jpg
02/12/2023;16:17:15;105;130;2;visAHA;6;0;;239;79;2PVIP_073_coffee_gauss5.jpg
02/12/2023;16:17:15;105;131;2;visAHA;5;0;;2581;62;2PVIP_056_baby3_gauss5.jpg
02/12/2023;16:17:15;105;132;2;visAHA;4;0;;555;29;1PVIP_029_leopard3.jpg
02/12/2023;16:17:15;105;133;2;visCATCH;5;1;;833;43;3PVIP_013_grasshopper.new_gauss3.jpg
02/12/2023;16:17:15;105;134;2;visAHA;6;0;;101;76;2PVIP_070_cauliflower.new_gauss3.jpg
02/12/2023;16:17:15;105;135;2;visAHA;4;0;;162;117;2PVIP_112_watch.jpg
02/12/2023;16:17:15;105;136;2;visCATCH;2;0;;580;41;3PVIP_011_football_gauss3.jpg
02/12/2023;16:17:15;105;136;3;solution_solved_VIScatch;5;1;;1030;1;Aufgabe im MRT GELýST?         1 = definitiv gelýst      2 = vermutlich gelýst      3 = weiý ich nicht mehr      4 = vermutlich NICHT gelýst      5 = definitiv NICHT gelýst
02/12/2023;16:17:15;105;137;2;visAHA;5;0;;8486;1;1PVIP_001_accordi2_gauss4.jpg
02/12/2023;16:17:15;105;138;2;visAHA;6;0;;103;74;2PVIP_068_carafe3.jpg
02/12/2023;16:17:15;105;139;2;visCATCH;4;1;;399;2;3PVIP_033_auditorium1_gauss4.jpg
02/12/2023;16:17:15;105;140;2;visAHA;6;0;;39;90;2PVIP_085_frog5.jpg
02/12/2023;16:17:15;105;141;2;visCATCH;5;1;;1991;25;3PVIP_057_treemouse_gauss3.jpg
02/12/2023;16:17:15;105;142;2;visAHA;6;0;;313;3;1PVIP_003_beehive_gauss2.jpg
02/12/2023;16:17:15;105;143;2;visAHA;6;0;;159;61;2PVIP_055_affe_gauss4.jpg
02/12/2023;16:17:15;105;144;2;visCATCH;6;1;;471;45;3PVIP_015_horse.new_gauss3.jpg
02/12/2023;16:17:15;105;145;2;visAHA;4;0;;1120;59;1PVIP_119_sewingmachine.jpg
02/12/2023;16:17:15;105;146;2;visCATCH;5;1;;556;35;3PVIP_005_dalmation8_gauss6.jpg
02/12/2023;16:17:15;105;147;2;visAHA;6;0;;379;56;1PVIP_116_otter.jpg
02/12/2023;16:17:15;105;148;2;visAHA;6;0;;407;88;2PVIP_083_eye.new_gauss2.jpg
02/12/2023;16:17:15;105;149;2;visAHA;4;0;;144;78;2PVIP_072_cigarette_gauss3.jpg
02/12/2023;16:17:15;105;150;2;visCATCH;6;1;;22;9;3PVIP_040_blossom2_gauss2.jpg
02/12/2023;16:17:15;105;151;2;visAHA;5;0;;1253;102;2PVIP_097_leopard7.jpg
02/12/2023;16:17:15;105;152;2;visCATCH;6;1;;402;19;3PVIP_051_soldier_gauss5.jpg
02/12/2023;16:17:15;105;153;2;visAHA;4;0;;356;34;1PVIP_034_octopus.new_gauss1.5.jpg
02/12/2023;16:17:15;105;154;2;visAHA;6;0;;285;50;1PVIP_050_typewriter_gauss5.5.jpg
02/12/2023;16:17:15;105;155;2;visAHA;5;0;;1026;49;1PVIP_049_turtle_gauss4.jpg
02/12/2023;16:17:15;105;156;2;visAHA;6;0;;368;114;2PVIP_109_shoes2_gauss4.jpg
02/12/2023;16:17:15;105;157;2;visAHA;4;0;;208;14;1PVIP_014_chipmunk_gauss2.jpg
02/12/2023;16:17:15;105;158;2;visAHA;5;0;;419;15;1PVIP_015_crocodile1_gauss2.5.jpg
02/12/2023;16:17:15;105;159;2;visCATCH;6;1;;175;50;3PVIP_021_leaf_gauss5.jpg
02/12/2023;16:17:15;105;160;2;visAHA;6;0;;310;47;1PVIP_047_toad2_gauss1.jpg
02/12/2023;16:17:15;105;161;2;visCATCH;4;1;;1296;12;3PVIP_043_candy_gauss3.jpg
02/12/2023;16:17:15;105;162;2;visAHA;5;0;;1547;53;1PVIP_053_watch2.jpg
02/12/2023;16:17:15;105;163;2;visAHA;6;0;;1060;28;1PVIP_028_knife.new_gauss1.5.jpg
02/12/2023;16:17:15;105;164;2;visCATCH;4;1;;688;17;3PVIP_049_seahorse_gauss6.jpg
02/12/2023;16:17:15;105;165;2;visAHA;6;0;;1271;110;2PVIP_105_puppy1_gauss3.jpg
02/12/2023;16:17:15;105;166;2;visCATCH;5;1;;636;3;3PVIP_034_axe.new_gauss2.jpg
02/12/2023;16:17:15;105;167;2;visAHA;4;0;;6;24;1PVIP_024_hamster2_gauss1.5.jpg
02/12/2023;16:17:15;105;168;2;visCATCH;6;1;;689;36;3PVIP_006_dart2_gauss6.jpg
02/12/2023;16:17:15;105;169;2;visAHA;5;0;;7624;111;2PVIP_106_saxophone1_gauss3.jpg
02/12/2023;16:17:15;105;170;2;visCATCH;6;1;;514;38;3PVIP_008_duck.new_gauss2.jpg
02/12/2023;16:17:15;105;171;2;visAHA;5;0;;5072;86;2PVIP_080_ear_gauss2.jpg
02/12/2023;16:17:15;105;172;2;visCATCH;4;1;;280;51;3PVIP_022_llama_gauss3.jpg
02/12/2023;16:17:15;105;173;2;visAHA;5;0;;1278;72;2PVIP_066_burro1_gauss3.jpg
02/12/2023;16:17:15;105;174;2;visAHA;6;0;;578;67;2PVIP_061_boat_gauss3.jpg
02/12/2023;16:17:15;105;175;2;visAHA;4;0;;552;8;1PVIP_008_boat2.jpg
02/12/2023;16:17:15;105;176;2;visAHA;5;0;;623;65;2PVIP_059_bear.new_gauss4.jpg
02/12/2023;16:17:15;105;177;2;visAHA;6;0;;1577;10;1PVIP_010_brain_gauss3.jpg
02/12/2023;16:17:15;105;178;2;visAHA;4;0;;129;23;1PVIP_023_geese_gauss3.jpg
02/12/2023;16:17:15;105;179;2;visAHA;5;0;;2257;116;2PVIP_111_snake3.jpg
02/12/2023;16:17:15;105;180;2;visAHA;4;0;;530;103;2PVIP_098_lion2.jpg
02/12/2023;16:17:15;105;181;2;visAHA;6;0;;405;104;2PVIP_099_metro_gauss2.jpg
02/12/2023;16:15:07;106;2;2;visAHA;2;1;;5793;16;1PVIP_016_crone_gauss1.5.jpg
02/12/2023;16:15:07;106;2;3;solution_solved_VIS;5;0;;4907;1;Aufgabe im MRT GELýST?         1 = definitiv gelýst      2 = vermutlich gelýst      3 = weiý ich nicht mehr      4 = vermutlich NICHT gelýst      5 = definitiv NICHT gelýst
02/12/2023;16:15:07;106;3;2;visCATCH;3;0;;7090;59;3PVIP_030_pigeon_gauss4.jpg
02/12/2023;16:15:07;106;3;3;solution_solved_VIScatch;4;1;;2984;1;Aufgabe im MRT GELýST?         1 = definitiv gelýst      2 = vermutlich gelýst      3 = weiý ich nicht mehr      4 = vermutlich NICHT gelýst      5 = definitiv NICHT gelýst
02/12/2023;16:15:07;106;4;2;visAHA;5;0;;10308;2;1PVIP_002_arrow_gauss2.jpg
02/12/2023;16:15:07;106;5;2;visAHA;3;1;;6201;59;1PVIP_119_sewingmachine.jpg
02/12/2023;16:15:07;106;5;3;solution_solved_VIS;5;0;;2002;1;Aufgabe im MRT GELýST?         1 = definitiv gelýst      2 = vermutlich gelýst      3 = weiý ich nicht mehr      4 = vermutlich NICHT gelýst      5 = definitiv NICHT gelýst
02/12/2023;16:15:07;106;6;2;visCATCH;6;1;;4893;15;3PVIP_046_christ47_gauss2.jpg
02/12/2023;16:15:07;106;7;2;visAHA;2;1;;3980;108;2PVIP_103_panda_gauss6.jpg
02/12/2023;16:15:07;106;7;3;solution_solved_VIS;6;0;;2412;1;Aufgabe im MRT GELýST?         1 = definitiv gelýst      2 = vermutlich gelýst      3 = weiý ich nicht mehr      4 = vermutlich NICHT gelýst      5 = definitiv NICHT gelýst
02/12/2023;16:15:07;106;8;2;visAHA;2;1;;1556;12;1PVIP_012_cabin2.jpg
02/12/2023;16:15:07;106;8;3;solution_solved_VIS;2;1;;1039;1;Aufgabe im MRT GELýST?         1 = definitiv gelýst      2 = vermutlich gelýst      3 = weiý ich nicht mehr      4 = vermutlich NICHT gelýst      5 = definitiv NICHT gelýst
02/12/2023;16:15:07;106;8;4;solution_visAHA;Hýtte;0;1;5045;1;Bitte tippe Dein (damaliges) Lýsungswort hier ein:
02/12/2023;16:15:07;106;9;2;visAHA;4;0;;8012;43;1PVIP_043_snail.new_gauss2.5.jpg
02/12/2023;16:15:07;106;10;2;visAHA;3;1;;4638;25;1PVIP_025_hare.new_gauss2.jpg
02/12/2023;16:15:07;106;10;3;solution_solved_VIS;4;0;;3550;1;Aufgabe im MRT GELýST?         1 = definitiv gelýst      2 = vermutlich gelýst      3 = weiý ich nicht mehr      4 = vermutlich NICHT gelýst      5 = definitiv NICHT gelýst
02/12/2023;16:15:07;106;11;2;visAHA;5;0;;2698;116;2PVIP_111_snake3.jpg
02/12/2023;16:15:07;106;12;2;visCATCH;5;1;;3872;26;3PVIP_058_violin_gauss5.jpg
02/12/2023;16:15:07;106;13;2;visAHA;3;1;;3609;102;2PVIP_097_leopard7.jpg
02/12/2023;16:15:07;106;13;3;solution_solved_VIS;2;1;;2913;1;Aufgabe im MRT GELýST?         1 = definitiv gelýst      2 = vermutlich gelýst      3 = weiý ich nicht mehr      4 = vermutlich NICHT gelýst      5 = definitiv NICHT gelýst
02/12/2023;16:15:07;106;13;4;solution_visAHA;Jaguar;0;2;10093;1;Bitte tippe Dein (damaliges) Lýsungswort hier ein:
02/12/2023;16:15:07;106;14;2;visAHA;5;0;;7375;21;1PVIP_021_fox1_gauss1.jpg
02/12/2023;16:15:07;106;15;2;visAHA;2;1;;2778;18;1PVIP_018_dog3_gauss2.5.jpg
02/12/2023;16:15:07;106;15;3;solution_solved_VIS;2;1;;1002;1;Aufgabe im MRT GELýST?         1 = definitiv gelýst      2 = vermutlich gelýst      3 = weiý ich nicht mehr      4 = vermutlich NICHT gelýst      5 = definitiv NICHT gelýst
02/12/2023;16:15:07;106;15;4;solution_visAHA;Schiff;0;0;6660;1;Bitte tippe Dein (damaliges) Lýsungswort hier ein:
02/12/2023;16:15:07;106;16;2;visCATCH;5;1;;3952;28;3PVIP_060_wine2_gauss5.jpg
02/12/2023;16:15:07;106;17;2;visAHA;2;1;;4540;74;2PVIP_068_carafe3.jpg
02/12/2023;16:15:07;106;17;3;solution_solved_VIS;2;1;;768;1;Aufgabe im MRT GELýST?         1 = definitiv gelýst      2 = vermutlich gelýst      3 = weiý ich nicht mehr      4 = vermutlich NICHT gelýst      5 = definitiv NICHT gelýst
02/12/2023;16:15:07;106;17;4;solution_visAHA;Kanne;0;1;3666;1;Bitte tippe Dein (damaliges) Lýsungswort hier ein:
02/12/2023;16:15:07;106;18;2;visAHA;3;1;;1985;67;2PVIP_061_boat_gauss3.jpg
02/12/2023;16:15:07;106;18;3;solution_solved_VIS;2;1;;728;1;Aufgabe im MRT GELýST?         1 = definitiv gelýst      2 = vermutlich gelýst      3 = weiý ich nicht mehr      4 = vermutlich NICHT gelýst      5 = definitiv NICHT gelýst
02/12/2023;16:15:07;106;18;4;solution_visAHA;Boot;0;1;2579;1;Bitte tippe Dein (damaliges) Lýsungswort hier ein:
02/12/2023;16:15:07;106;19;2;visCATCH;3;0;;7805;1;3PVIP_032_ameise_gauss2.jpg
02/12/2023;16:15:07;106;19;3;solution_solved_VIScatch;3;0;;1679;1;Aufgabe im MRT GELýST?         1 = definitiv gelýst      2 = vermutlich gelýst      3 = weiý ich nicht mehr      4 = vermutlich NICHT gelýst      5 = definitiv NICHT gelýst
02/12/2023;16:15:07;106;19;4;solution_visCATCH;Armeise;0;1;5012;1;Bitte tippe Dein (damaliges) Lýsungswort hier ein:
02/12/2023;16:15:07;106;20;2;visAHA;5;0;;5261;64;2PVIP_058_bagpipe_gauss6.jpg
02/12/2023;16:15:07;106;21;2;visCATCH;4;1;;4213;37;3PVIP_007_dolphin.new_gauss3.jpg
02/12/2023;16:15:07;106;22;2;visAHA;3;1;;4016;119;2PVIP_114_wolf3.jpg
02/12/2023;16:15:07;106;22;3;solution_solved_VIS;3;1;;3993;1;Aufgabe im MRT GELýST?         1 = definitiv gelýst      2 = vermutlich gelýst      3 = weiý ich nicht mehr      4 = vermutlich NICHT gelýst      5 = definitiv NICHT gelýst
02/12/2023;16:15:07;106;22;4;solution_visAHA;Hund;0;2;9072;1;Bitte tippe Dein (damaliges) Lýsungswort hier ein:
02/12/2023;16:15:07;106;23;2;visAHA;3;1;;3622;34;1PVIP_034_octopus.new_gauss1.5.jpg
02/12/2023;16:15:07;106;23;3;solution_solved_VIS;5;0;;1621;1;Aufgabe im MRT GELýST?         1 = definitiv gelýst      2 = vermutlich gelýst      3 = weiý ich nicht mehr      4 = vermutlich NICHT gelýst      5 = definitiv NICHT gelýst
02/12/2023;16:15:07;106;24;2;visCATCH;5;1;;4327;9;3PVIP_040_blossom2_gauss2.jpg
02/12/2023;16:15:07;106;25;2;visAHA;5;0;;6876;33;1PVIP_033_nashorn_gauss2.jpg
02/12/2023;16:15:07;106;26;2;visCATCH;5;1;;3907;51;3PVIP_022_llama_gauss3.jpg
02/12/2023;16:15:07;106;27;2;visAHA;3;1;;4144;83;2PVIP_077_cow3.jpg
02/12/2023;16:15:07;106;27;3;solution_solved_VIS;5;0;;722;1;Aufgabe im MRT GELýST?         1 = definitiv gelýst      2 = vermutlich gelýst      3 = weiý ich nicht mehr      4 = vermutlich NICHT gelýst      5 = definitiv NICHT gelýst
02/12/2023;16:15:07;106;28;2;visCATCH;4;1;;4225;40;3PVIP_010_flamingo_gauss3.jpg
02/12/2023;16:15:07;106;29;2;visAHA;2;1;;2866;54;1PVIP_054_toilet_gauss5.jpg
02/12/2023;16:15:07;106;29;3;solution_solved_VIS;5;0;;2271;1;Aufgabe im MRT GELýST?         1 = definitiv gelýst      2 = vermutlich gelýst      3 = weiý ich nicht mehr      4 = vermutlich NICHT gelýst      5 = definitiv NICHT gelýst
02/12/2023;16:15:07;106;30;2;visCATCH;3;0;;5942;43;3PVIP_013_grasshopper.new_gauss3.jpg
02/12/2023;16:15:07;106;30;3;solution_solved_VIScatch;3;0;;1825;1;Aufgabe im MRT GELýST?         1 = definitiv gelýst      2 = vermutlich gelýst      3 = weiý ich nicht mehr      4 = vermutlich NICHT gelýst      5 = definitiv NICHT gelýst
02/12/2023;16:15:07;106;30;4;solution_visCATCH;Kýfer;0;0;4520;1;Bitte tippe Dein (damaliges) Lýsungswort hier ein:
02/12/2023;16:15:07;106;31;2;visAHA;6;0;;7861;27;1PVIP_027_squirrel.new_gauss4.jpg
02/12/2023;16:15:07;106;32;2;visCATCH;6;1;;3701;24;3PVIP_056_tractor_gauss4.jpg
02/12/2023;16:15:07;106;33;2;visAHA;2;1;;1986;55;1PVIP_082_erdbeere_gauss1.jpg
02/12/2023;16:15:07;106;33;3;solution_solved_VIS;2;1;;1236;1;Aufgabe im MRT GELýST?         1 = definitiv gelýst      2 = vermutlich gelýst      3 = weiý ich nicht mehr      4 = vermutlich NICHT gelýst      5 = definitiv NICHT gelýst
02/12/2023;16:15:07;106;33;4;solution_visAHA;Erdbeere;0;1;3483;1;Bitte tippe Dein (damaliges) Lýsungswort hier ein:
02/12/2023;16:15:07;106;34;2;visAHA;6;0;;2312;120;2PVIP_115_woman.jpg
02/12/2023;16:15:07;106;35;2;visAHA;3;1;;3215;22;1PVIP_022_frog2_gauss4.jpg
02/12/2023;16:15:07;106;35;3;solution_solved_VIS;3;1;;1168;1;Aufgabe im MRT GELýST?         1 = definitiv gelýst      2 = vermutlich gelýst      3 = weiý ich nicht mehr      4 = vermutlich NICHT gelýst      5 = definitiv NICHT gelýst
02/12/2023;16:15:07;106;35;4;solution_visAHA;Frosch;0;1;3170;1;Bitte tippe Dein (damaliges) Lýsungswort hier ein:
02/12/2023;16:15:07;106;36;2;visCATCH;5;1;;3052;4;3PVIP_035_basket_gauss3.jpg
02/12/2023;16:15:07;106;37;2;visAHA;3;1;;4356;118;2PVIP_113_whale.jpg
02/12/2023;16:15:07;106;37;3;solution_solved_VIS;5;0;;950;1;Aufgabe im MRT GELýST?         1 = definitiv gelýst      2 = vermutlich gelýst      3 = weiý ich nicht mehr      4 = vermutlich NICHT gelýst      5 = definitiv NICHT gelýst
02/12/2023;16:15:07;106;38;2;visAHA;5;0;;7281;13;1PVIP_013_cat.new_gauss3.jpg
02/12/2023;16:15:07;106;39;2;visAHA;2;1;;2665;24;1PVIP_024_hamster2_gauss1.5.jpg
02/12/2023;16:15:07;106;39;3;solution_solved_VIS;2;1;;831;1;Aufgabe im MRT GELýST?         1 = definitiv gelýst      2 = vermutlich gelýst      3 = weiý ich nicht mehr      4 = vermutlich NICHT gelýst      5 = definitiv NICHT gelýst
02/12/2023;16:15:07;106;39;4;solution_visAHA;Meerschweinchen;0;2;5399;1;Bitte tippe Dein (damaliges) Lýsungswort hier ein:
02/12/2023;16:15:07;106;40;2;visAHA;2;1;;1310;47;1PVIP_047_toad2_gauss1.jpg
02/12/2023;16:15:07;106;40;3;solution_solved_VIS;2;1;;603;1;Aufgabe im MRT GELýST?         1 = definitiv gelýst      2 = vermutlich gelýst      3 = weiý ich nicht mehr      4 = vermutlich NICHT gelýst      5 = definitiv NICHT gelýst
02/12/2023;16:15:07;106;40;4;solution_visAHA;Krýte;0;1;2789;1;Bitte tippe Dein (damaliges) Lýsungswort hier ein:
02/12/2023;16:15:07;106;41;2;visAHA;5;0;;3493;91;2PVIP_086_girl.jpg
02/12/2023;16:15:07;106;42;2;visAHA;3;1;;8181;20;1PVIP_020_fork.jpg
02/12/2023;16:15:07;106;42;3;solution_solved_VIS;3;1;;925;1;Aufgabe im MRT GELýST?         1 = definitiv gelýst      2 = vermutlich gelýst      3 = weiý ich nicht mehr      4 = vermutlich NICHT gelýst      5 = definitiv NICHT gelýst
