date;time;subject;blocknum;trialnum;stimnumber;moonie;cor1;cor2;Kategorie;RT;solution;solution_RT;AHA_response;AHA_RT;sudden_response;sudden_RT;certain_response;certain_RT;sex;age;citizen;proficiency;edu
27/11/2023;11:33:25;100;3;7;1;0PVIP_001_tank2bw_filt1_gauss3.jpg;0;0;;10000;;;;;;;;;1;20;Russia;4;Abitur
27/11/2023;11:33:25;100;5;7;1;0PVIP_002_pineapplebw_filt1_gauss3.jpg;0;0;;10000;keine Lýsung gefunde;38615;3;2578;2;2833;2;104896;1;20;Russia;4;Abitur
27/11/2023;11:33:25;100;7;6;45;1PVIP_045_spider.new_gauss1.jpg;1;0;2;9029;lamb;18664;3;5218;3;4885;3;4797;1;20;Russia;4;Abitur
27/11/2023;11:33:25;100;8;6;70;2PVIP_064_bridge_gauss2.5.jpg;1;0;0;7439;Schmetterling;18805;4;2127;5;3265;4;1992;1;20;Russia;4;Abitur
27/11/2023;11:33:25;100;9;6;39;1PVIP_039_rat_gauss1.jpg;1;0;2;6518;apossum;2839;3;5241;4;1915;4;2053;1;20;Russia;4;Abitur
27/11/2023;11:33:25;100;10;6;59;1PVIP_119_sewingmachine.jpg;1;0;1;8868;Stuhl;3938;2;1023;4;2077;3;1474;1;20;Russia;4;Abitur
27/11/2023;11:33:25;100;11;6;41;1PVIP_041_rose.jpg;1;1;;2497;Rose;2822;4;388;5;1164;5;1379;1;20;Russia;4;Abitur
27/11/2023;11:33:25;100;12;6;101;2PVIP_096_lamb_gauss3.jpg;1;1;;3075;lamb;3223;4;4690;5;9739;5;2846;1;20;Russia;4;Abitur
27/11/2023;11:33:25;100;13;6;18;1PVIP_018_dog3_gauss2.5.jpg;1;0;0;5844;Schiff;4658;4;1115;5;1494;4;2221;1;20;Russia;4;Abitur
27/11/2023;11:33:25;100;14;6;43;1PVIP_043_snail.new_gauss2.5.jpg;0;0;;10000;;;;;;;;;1;20;Russia;4;Abitur
27/11/2023;11:33:25;100;15;6;68;2PVIP_062_book2_gauss3.5.jpg;1;1;;3561;Buch;3257;2;933;4;2151;3;2048;1;20;Russia;4;Abitur
27/11/2023;11:33:25;100;16;6;93;2PVIP_088_gun.jpg;1;1;;4388;Waffe;3760;2;1389;5;1340;5;889;1;20;Russia;4;Abitur
27/11/2023;11:33:25;100;17;6;55;1PVIP_082_erdbeere_gauss1.jpg;0;0;;10000;;;;;;;;;1;20;Russia;4;Abitur
27/11/2023;11:33:25;100;18;6;17;1PVIP_017_deer2_gauss1.jpg;1;1;;5804;Hirsch;27384;5;6905;5;5320;5;4839;1;20;Russia;4;Abitur
27/11/2023;11:33:25;100;19;6;108;2PVIP_103_panda_gauss6.jpg;0;0;;10000;;;;;;;;;1;20;Russia;4;Abitur
27/11/2023;11:33:25;100;20;6;96;2PVIP_091_horn.new_gauss3.jpg;0;0;;10000;;;;;;;;;1;20;Russia;4;Abitur
27/11/2023;11:33:25;100;21;6;76;2PVIP_070_cauliflower.new_gauss3.jpg;1;0;0;7446;Vase;8667;2;1308;3;1519;2;3774;1;20;Russia;4;Abitur
27/11/2023;11:33:25;100;22;6;119;2PVIP_114_wolf3.jpg;1;2;;6570;Fuchs;4805;3;1497;5;596;3;8374;1;20;Russia;4;Abitur
27/11/2023;11:33:25;100;23;6;64;2PVIP_058_bagpipe_gauss6.jpg;0;0;;10000;;;;;;;;;1;20;Russia;4;Abitur
27/11/2023;11:33:25;100;24;6;115;2PVIP_110_ski.new_gauss1.jpg;1;0;2;8071;Haus;8170;2;1375;3;4304;2;7830;1;20;Russia;4;Abitur
27/11/2023;11:33:25;100;25;6;58;1PVIP_118_phone_gauss5.jpg;0;0;;10000;;;;;;;;;1;20;Russia;4;Abitur
27/11/2023;11:33:25;100;26;6;34;1PVIP_034_octopus.new_gauss1.5.jpg;0;0;;10000;;;;;;;;;1;20;Russia;4;Abitur
27/11/2023;11:33:25;100;27;6;46;1PVIP_046_tiger_gauss2.5.jpg;1;1;;1174;Tiger;8541;4;1347;5;1205;5;1295;1;20;Russia;4;Abitur
27/11/2023;11:33:25;100;28;6;12;1PVIP_012_cabin2.jpg;1;2;;7410;Haus;2354;3;615;4;343;3;1100;1;20;Russia;4;Abitur
27/11/2023;11:33:25;100;29;6;80;2PVIP_074_computer.jpg;0;0;;10000;;;;;;;;;1;20;Russia;4;Abitur
27/11/2023;11:33:25;100;30;6;54;1PVIP_054_toilet_gauss5.jpg;1;0;1;8552;Handy;1857;2;1061;3;658;2;1331;1;20;Russia;4;Abitur
27/11/2023;11:33:25;100;31;6;84;2PVIP_078_crocodile2_gauss2.jpg;1;1;;1510;Krokodil;8520;2;1185;5;248;5;5697;1;20;Russia;4;Abitur
27/11/2023;11:33:25;100;32;6;92;2PVIP_087_goat_gauss5.jpg;1;1;;2076;Ziegenbock;21405;3;468;5;521;5;5200;1;20;Russia;4;Abitur
27/11/2023;11:33:25;100;33;6;32;1PVIP_032_mountain_gauss3.5.jpg;1;0;0;6757;Skelett eines Tieres;11073;2;14041;3;709;2;1369;1;20;Russia;4;Abitur
27/11/2023;11:33:25;100;34;6;53;1PVIP_053_watch2.jpg;1;1;;3165;Uhr;2384;4;259;5;273;5;1413;1;20;Russia;4;Abitur
27/11/2023;11:33:25;100;35;6;38;1PVIP_038_python2_gauss2.jpg;0;0;;10000;;;;;;;;;1;20;Russia;4;Abitur
27/11/2023;11:33:25;100;36;6;15;1PVIP_015_crocodile1_gauss2.5.jpg;0;0;;10000;;;;;;;;;1;20;Russia;4;Abitur
27/11/2023;11:33:25;100;37;6;117;2PVIP_112_watch.jpg;1;0;1;6056;Fernseher;11676;2;2037;4;2154;2;1481;1;20;Russia;4;Abitur
27/11/2023;11:33:25;100;38;6;82;2PVIP_076_computer.new_gauss5.jpg;1;1;;5185;Komputer;4258;3;743;4;1777;3;934;1;20;Russia;4;Abitur
27/11/2023;11:33:25;100;39;6;90;2PVIP_085_frog5.jpg;1;1;;1301;Frosch;22129;4;2412;5;274;5;1256;1;20;Russia;4;Abitur
27/11/2023;11:33:25;100;40;6;97;2PVIP_092_jet1_gauss5.jpg;0;0;;10000;;;;;;;;;1;20;Russia;4;Abitur
27/11/2023;11:33:25;100;41;6;110;2PVIP_105_puppy1_gauss3.jpg;0;0;;10000;;;;;;;;;1;20;Russia;4;Abitur
27/11/2023;11:33:25;100;42;6;71;2PVIP_065_bulldog5_gauss3.jpg;1;1;;3060;Mops;2905;4;269;5;282;3;1039;1;20;Russia;4;Abitur
27/11/2023;11:33:25;100;43;6;85;2PVIP_079_drumset_gauss5.jpg;1;0;0;5585;Býr;12150;4;664;4;1781;3;2502;1;20;Russia;4;Abitur
27/11/2023;11:33:25;100;44;6;78;2PVIP_072_cigarette_gauss3.jpg;0;0;;10000;;;;;;;;;1;20;Russia;4;Abitur
27/11/2023;11:33:25;100;45;6;67;2PVIP_061_boat_gauss3.jpg;1;1;;6140;Boot;2472;4;362;4;115;3;6857;1;20;Russia;4;Abitur
27/11/2023;11:33:25;100;46;6;10;1PVIP_010_brain_gauss3.jpg;1;1;;2915;Gehirn;2509;4;337;5;203;4;1477;1;20;Russia;4;Abitur
27/11/2023;11:33:25;100;47;6;50;1PVIP_050_typewriter_gauss5.5.jpg;1;0;2;3879;Rasiermesser;14953;3;553;5;266;3;1569;1;20;Russia;4;Abitur
27/11/2023;11:33:25;100;48;6;60;1PVIP_120_toaster.jpg;1;0;1;6503;Rasiermesser;7597;3;39;5;237;3;2167;1;20;Russia;4;Abitur
27/11/2023;11:33:25;100;49;6;9;1PVIP_009_railroad_gauss5.jpg;1;1;;1848;Zug;1394;4;72;5;93;3;1301;1;20;Russia;4;Abitur
27/11/2023;11:33:25;100;50;6;52;1PVIP_052_wolf2.jpg;1;1;;3162;Wolf;1833;4;1109;5;400;5;3649;1;20;Russia;4;Abitur
27/11/2023;11:33:25;100;51;6;11;1PVIP_011_butterfly2.jpg;1;0;2;8383;Hase;9473;4;507;3;542;2;353;1;20;Russia;4;Abitur
27/11/2023;11:33:25;100;52;6;95;2PVIP_090_hawk_gauss4.jpg;0;0;;10000;;;;;;;;;1;20;Russia;4;Abitur
27/11/2023;11:33:25;100;53;6;116;2PVIP_111_snake3.jpg;1;0;2;5862;Wildkatze;16302;4;2696;5;322;3;3134;1;20;Russia;4;Abitur
27/11/2023;11:33:25;100;54;6;120;2PVIP_115_woman.jpg;1;0;2;6805;Schnauze eines Tie;49272;3;11383;5;3935;3;2600;1;20;Russia;4;Abitur
27/11/2023;11:33:25;100;55;6;30;1PVIP_030_lion1_gauss2.5.jpg;1;0;1;4159;Hund;2093;4;208;5;287;5;542;1;20;Russia;4;Abitur
27/11/2023;11:33:25;100;56;6;27;1PVIP_027_squirrel.new_gauss4.jpg;1;0;2;9544;Springmaus;4401;3;10975;5;392;2;1291;1;20;Russia;4;Abitur
27/11/2023;11:33:25;100;57;6;7;1PVIP_007_bird3.jpg;0;0;;10000;;;;;;;;;1;20;Russia;4;Abitur
27/11/2023;11:33:25;100;58;6;89;2PVIP_084_fish1_gauss3.jpg;1;0;2;6082;Waran;2490;4;4662;5;4;3;1683;1;20;Russia;4;Abitur
27/11/2023;11:33:25;100;59;6;21;1PVIP_021_fox1_gauss1.jpg;1;1;;2245;Fuchs;2674;4;1337;5;2411;5;402;1;20;Russia;4;Abitur
27/11/2023;11:33:25;100;60;6;25;1PVIP_025_hare.new_gauss2.jpg;1;0;0;5557;Schaf;5658;4;314;5;133;3;1770;1;20;Russia;4;Abitur
27/11/2023;11:33:25;100;61;6;8;1PVIP_008_boat2.jpg;1;2;;1315;Schiff;2522;4;148;5;134;5;262;1;20;Russia;4;Abitur
27/11/2023;11:33:25;100;62;6;44;1PVIP_044_snake_gauss1.5.jpg;1;0;1;5124;Schildkrýte;10871;4;817;5;264;3;3578;1;20;Russia;4;Abitur
27/11/2023;11:33:25;100;63;6;102;2PVIP_097_leopard7.jpg;1;2;;2219;Panter;3795;4;645;5;1011;5;5785;1;20;Russia;4;Abitur
27/11/2023;11:33:25;100;64;6;42;1PVIP_042_sheep1_gauss2.5.jpg;1;1;;3849;Schaf;5168;4;296;5;357;4;1268;1;20;Russia;4;Abitur
27/11/2023;11:33:25;100;65;6;72;2PVIP_066_burro1_gauss3.jpg;1;0;1;5933;Schýfchen/Lamm;35013;4;435;5;345;4;2580;1;20;Russia;4;Abitur
27/11/2023;11:33:25;100;66;6;16;1PVIP_016_crone_gauss1.5.jpg;1;0;2;8865;Billardtisch;26512;3;246;4;340;3;1615;1;20;Russia;4;Abitur
27/11/2023;11:33:25;100;67;6;98;2PVIP_093_kamel_gauss1.5.jpg;1;0;2;7431;Schlange;3819;2;433;4;535;2;1360;1;20;Russia;4;Abitur
27/11/2023;11:33:25;100;68;6;22;1PVIP_022_frog2_gauss4.jpg;1;1;;4784;Frosch;5792;3;191;4;240;3;1525;1;20;Russia;4;Abitur
27/11/2023;11:33:25;100;69;6;63;2PVIP_057_bag.jpg;1;0;2;7764;Bilderrahmen;5232;3;323;5;206;3;11887;1;20;Russia;4;Abitur
27/11/2023;11:33:25;100;70;6;77;2PVIP_071_chair1_gauss3.jpg;1;2;2;1115;Sofa;12063;3;73;5;238;3;885;1;20;Russia;4;Abitur
27/11/2023;11:33:25;100;71;6;37;1PVIP_037_pfau_gauss3.jpg;1;0;0;7699;Himbeeren;4550;4;738;2;796;2;1745;1;20;Russia;4;Abitur
27/11/2023;11:33:25;100;72;6;6;1PVIP_006_bike.jpg;1;1;;3531;Fahrrad;10813;3;196;5;53;5;1381;1;20;Russia;4;Abitur
27/11/2023;11:33:25;100;73;6;31;1PVIP_031_lizard_gauss2.jpg;1;1;;4197;Echse;3032;4;1419;5;233;4;7810;1;20;Russia;4;Abitur
27/11/2023;11:33:25;100;74;6;1;1PVIP_001_accordi2_gauss4.jpg;1;0;2;1550;Harmonika;9633;3;159;5;224;5;4344;1;20;Russia;4;Abitur
27/11/2023;11:33:25;100;75;6;57;1PVIP_117_pepper.jpg;1;1;;1193;Paprika;2149;4;661;5;562;5;480;1;20;Russia;4;Abitur
27/11/2023;11:33:25;100;76;6;88;2PVIP_083_eye.new_gauss2.jpg;1;1;;1037;Auge;2414;4;285;5;121;5;1323;1;20;Russia;4;Abitur
27/11/2023;11:33:25;100;77;6;107;2PVIP_102_owl_gauss4.jpg;1;0;2;4876;Schýdel;7375;3;268;5;105;3;1021;1;20;Russia;4;Abitur
27/11/2023;11:33:25;100;78;6;24;1PVIP_024_hamster2_gauss1.5.jpg;1;1;;1378;Hýmster;4284;4;659;5;352;5;16274;1;20;Russia;4;Abitur
27/11/2023;11:33:25;100;79;6;49;1PVIP_049_turtle_gauss4.jpg;0;0;;10000;;;;;;;;;1;20;Russia;4;Abitur
27/11/2023;11:33:25;100;80;6;81;2PVIP_075_chair3_gauss5.jpg;1;1;;2962;Stuhl;2466;3;249;5;359;4;801;1;20;Russia;4;Abitur
27/11/2023;11:33:25;100;81;6;3;1PVIP_003_beehive_gauss2.jpg;1;0;2;7006;Býr;2406;3;1145;4;547;3;2520;1;20;Russia;4;Abitur
27/11/2023;11:33:25;100;82;6;87;2PVIP_081_elephant2_gauss2.jpg;0;0;;10000;;;;;;;;;1;20;Russia;4;Abitur
27/11/2023;11:33:25;100;83;6;66;2PVIP_060_bee2.jpg;1;1;;1401;Biene;10008;4;578;5;131;5;1128;1;20;Russia;4;Abitur
27/11/2023;11:33:25;100;84;6;118;2PVIP_113_whale.jpg;0;0;;10000;;;;;;;;;1;20;Russia;4;Abitur
27/11/2023;11:33:25;100;85;6;106;2PVIP_101_orange.jpg;1;2;;2837;Grapefruit;9680;4;191;4;207;4;57;1;20;Russia;4;Abitur
27/11/2023;11:33:25;100;86;6;114;2PVIP_109_shoes2_gauss4.jpg;1;1;;2054;Laufschuhe;9243;3;116;5;903;5;746;1;20;Russia;4;Abitur
27/11/2023;11:33:25;100;87;6;79;2PVIP_073_coffee_gauss5.jpg;1;0;2;9267;Ball;3421;2;1429;4;403;2;7169;1;20;Russia;4;Abitur
27/11/2023;11:33:25;100;88;6;100;2PVIP_095_knob_gauss1.jpg;1;0;2;5649;Abflussrohr;18949;2;99;4;295;3;211;1;20;Russia;4;Abitur
27/11/2023;11:33:25;100;89;6;28;1PVIP_028_knife.new_gauss1.5.jpg;0;0;;10000;;;;;;;;;1;20;Russia;4;Abitur
27/11/2023;11:33:25;100;90;6;13;1PVIP_013_cat.new_gauss3.jpg;1;0;2;7813;Výgel;2469;2;393;3;529;2;1502;1;20;Russia;4;Abitur
27/11/2023;11:33:25;100;91;6;40;1PVIP_040_robbe_gauss3.jpg;1;3;2;7041;Katze;4798;3;498;5;422;4;794;1;20;Russia;4;Abitur
27/11/2023;11:33:25;100;92;6;26;1PVIP_026_hedgehog.new_gauss2.jpg;1;1;;1531;Igel;10305;5;199;5;391;5;565;1;20;Russia;4;Abitur
27/11/2023;11:33:25;100;93;6;94;2PVIP_089_hammer_gauss2.jpg;0;0;;10000;;;;;;;;;1;20;Russia;4;Abitur
27/11/2023;11:33:25;100;94;6;4;1PVIP_004_beetle1_gauss2.5.jpg;0;0;;10000;;;;;;;;;1;20;Russia;4;Abitur
27/11/2023;11:33:25;100;95;6;86;2PVIP_080_ear_gauss2.jpg;0;0;;10000;;;;;;;;;1;20;Russia;4;Abitur
27/11/2023;11:33:25;100;96;6;20;1PVIP_020_fork.jpg;1;1;;1068;Gabeln;8318;3;455;5;172;5;1433;1;20;Russia;4;Abitur
27/11/2023;11:33:25;100;97;6;29;1PVIP_029_leopard3.jpg;0;0;;10000;;;;;;;;;1;20;Russia;4;Abitur
27/11/2023;11:33:25;100;98;6;36;1PVIP_036_pen2.jpg;1;1;;5840;Stifte;18547;2;362;3;628;2;2554;1;20;Russia;4;Abitur
27/11/2023;11:33:25;100;99;6;104;2PVIP_099_metro_gauss2.jpg;1;1;;1407;UBhan;6083;3;910;5;194;5;1358;1;20;Russia;4;Abitur
27/11/2023;11:33:25;100;100;6;91;2PVIP_086_girl.jpg;0;0;;10000;;;;;;;;;1;20;Russia;4;Abitur
27/11/2023;11:33:25;100;101;6;112;2PVIP_107_scorpion_gauss8.jpg;0;0;;10000;;;;;;;;;1;20;Russia;4;Abitur
27/11/2023;11:33:25;100;102;6;109;2PVIP_104_piano.jpg;1;1;;2006;Klavier;9338;4;165;5;118;4;781;1;20;Russia;4;Abitur
27/11/2023;11:33:25;100;103;6;51;1PVIP_051_wheat_gauss1.5.jpg;1;0;0;926;ýhre;22469;4;107;5;94;4;337;1;20;Russia;4;Abitur
27/11/2023;11:33:25;100;104;6;19;1PVIP_019_elephant1_gauss2.jpg;1;0;1;3521;Kýnguru;7380;4;305;5;76;4;376;1;20;Russia;4;Abitur
27/11/2023;11:33:25;100;105;6;111;2PVIP_106_saxophone1_gauss3.jpg;1;0;0;3687;Hand;1497;4;1834;5;199;5;22137;1;20;Russia;4;Abitur
27/11/2023;11:33:25;100;106;6;69;2PVIP_063_brick_gauss5.jpg;1;0;2;8012;Finger;2297;4;5392;5;1484;2;1726;1;20;Russia;4;Abitur
27/11/2023;11:33:25;100;107;6;35;1PVIP_035_orchid_gauss1.jpg;1;1;;2380;Orchidee;25372;5;305;5;252;5;259;1;20;Russia;4;Abitur
27/11/2023;11:33:25;100;108;6;65;2PVIP_059_bear.new_gauss4.jpg;1;1;;5330;Býrchen;13014;4;232;5;263;3;817;1;20;Russia;4;Abitur
27/11/2023;11:33:25;100;109;6;103;2PVIP_098_lion2.jpg;1;0;0;7651;Tier;1432;3;1690;3;349;3;1219;1;20;Russia;4;Abitur
27/11/2023;11:33:25;100;110;6;74;2PVIP_068_carafe3.jpg;1;2;;3358;Vase;1920;2;975;3;240;2;8765;1;20;Russia;4;Abitur
27/11/2023;11:33:25;100;111;6;5;1PVIP_005_bell_gauss1.5.jpg;0;0;;10000;;;;;;;;;1;20;Russia;4;Abitur
27/11/2023;11:33:25;100;112;6;48;1PVIP_048_tomb_gauss3.jpg;0;0;;10000;;;;;;;;;1;20;Russia;4;Abitur
27/11/2023;11:33:25;100;113;6;2;1PVIP_002_arrow_gauss2.jpg;1;0;0;6476;Gesicht;2246;2;467;3;280;3;795;1;20;Russia;4;Abitur
27/11/2023;11:33:25;100;114;6;99;2PVIP_094_kettle2_gauss3.jpg;1;0;0;5755;Ochse;2963;2;1005;5;10652;2;872;1;20;Russia;4;Abitur
27/11/2023;11:33:25;100;115;6;73;2PVIP_067_carafe2.jpg;1;1;;2570;Krug;15388;4;380;5;853;5;1306;1;20;Russia;4;Abitur
27/11/2023;11:33:25;100;116;6;61;2PVIP_055_affe_gauss4.jpg;0;0;;10000;;;;;;;;;1;20;Russia;4;Abitur
27/11/2023;11:33:25;100;117;6;14;1PVIP_014_chipmunk_gauss2.jpg;1;2;;3037;Wýhlmaus;4426;4;51;5;217;5;20361;1;20;Russia;4;Abitur
27/11/2023;11:33:25;100;118;6;105;2PVIP_100_mirror_gauss4.jpg;1;1;;3542;Taschenspiegel;9927;4;162;5;164;5;877;1;20;Russia;4;Abitur
27/11/2023;11:33:25;100;119;6;23;1PVIP_023_geese_gauss3.jpg;0;0;;10000;;;;;;;;;1;20;Russia;4;Abitur
27/11/2023;11:33:25;100;120;6;56;1PVIP_116_otter.jpg;1;2;;6567;Opossum;73159;3;275;3;448;3;995;1;20;Russia;4;Abitur
27/11/2023;11:33:25;100;121;6;62;2PVIP_056_baby3_gauss5.jpg;1;1;;1344;Baby;1807;4;223;5;222;5;274;1;20;Russia;4;Abitur
27/11/2023;11:33:25;100;122;6;83;2PVIP_077_cow3.jpg;1;0;0;4726;Waffe;2036;2;829;3;244;4;189;1;20;Russia;4;Abitur
27/11/2023;11:33:25;100;123;6;47;1PVIP_047_toad2_gauss1.jpg;1;1;;1313;Frosch;1970;4;20;5;59;5;212;1;20;Russia;4;Abitur
27/11/2023;11:33:25;100;124;6;33;1PVIP_033_nashorn_gauss2.jpg;0;0;;10000;;;;;;;;;1;20;Russia;4;Abitur
27/11/2023;11:33:25;100;125;6;75;2PVIP_069_cat2.jpg;0;0;;10000;;;;;;;;;1;20;Russia;4;Abitur
27/11/2023;11:33:25;100;126;6;113;2PVIP_108_shark1_gauss3.jpg;1;0;0;9597;Umhang;24568;2;32;3;215;2;542;1;20;Russia;4;Abitur
27/11/2023;12:12:15;101;3;7;1;0PVIP_001_tank2bw_filt1_gauss3.jpg;0;0;;10000;;;;;;;;;1;26;Turkey;4;Bachelor
27/11/2023;12:12:15;101;5;7;1;0PVIP_002_pineapplebw_filt1_gauss3.jpg;1;0;;5071;Grass;3743;3;5678;4;4534;3;5944;1;26;Turkey;4;Bachelor
27/11/2023;12:12:15;101;7;6;41;1PVIP_041_rose.jpg;1;1;;2727;Rose;3222;4;4713;5;5385;4;6056;1;26;Turkey;4;Bachelor
27/11/2023;12:12:15;101;8;6;108;2PVIP_103_panda_gauss6.jpg;1;1;;5123;Panda;3364;4;5645;4;3391;3;5617;1;26;Turkey;4;Bachelor
27/11/2023;12:12:15;101;9;6;58;1PVIP_118_phone_gauss5.jpg;0;0;;10000;;;;;;;;;1;26;Turkey;4;Bachelor
27/11/2023;12:12:15;101;10;6;48;1PVIP_048_tomb_gauss3.jpg;1;0;0;5578;Baum;3856;3;3948;3;7723;3;6934;1;26;Turkey;4;Bachelor
27/11/2023;12:12:15;101;11;6;92;2PVIP_087_goat_gauss5.jpg;0;0;;10000;;;;;;;;;1;26;Turkey;4;Bachelor
27/11/2023;12:12:15;101;12;6;115;2PVIP_110_ski.new_gauss1.jpg;1;0;2;4719;Schere;4681;3;3405;5;3538;3;5359;1;26;Turkey;4;Bachelor
27/11/2023;12:12:15;101;13;6;44;1PVIP_044_snake_gauss1.5.jpg;1;1;;9387;Schlange;4459;2;5455;3;4689;2;3252;1;26;Turkey;4;Bachelor
27/11/2023;12:12:15;101;14;6;99;2PVIP_094_kettle2_gauss3.jpg;0;0;;10000;;;;;;;;;1;26;Turkey;4;Bachelor
27/11/2023;12:12:15;101;15;6;118;2PVIP_113_whale.jpg;1;0;0;5451;Ring;2935;3;3792;4;2933;2;2069;1;26;Turkey;4;Bachelor
27/11/2023;12:12:15;101;16;6;104;2PVIP_099_metro_gauss2.jpg;1;1;;2360;Zug;4085;5;3422;5;2923;5;2216;1;26;Turkey;4;Bachelor
27/11/2023;12:12:15;101;17;6;105;2PVIP_100_mirror_gauss4.jpg;1;1;;2702;Spiegel;4383;4;2694;5;2609;4;2775;1;26;Turkey;4;Bachelor
27/11/2023;12:12:15;101;18;6;56;1PVIP_116_otter.jpg;1;0;2;9069;Raubtier;10796;3;11289;3;6309;3;4596;1;26;Turkey;4;Bachelor
27/11/2023;12:12:15;101;19;6;107;2PVIP_102_owl_gauss4.jpg;1;1;;3755;Eule;3512;3;3361;5;3344;4;2554;1;26;Turkey;4;Bachelor
27/11/2023;12:12:15;101;20;6;47;1PVIP_047_toad2_gauss1.jpg;0;0;;10000;;;;;;;;;1;26;Turkey;4;Bachelor
27/11/2023;12:12:15;101;21;6;5;1PVIP_005_bell_gauss1.5.jpg;1;1;;2141;Glocke;3383;5;5117;5;2092;5;2390;1;26;Turkey;4;Bachelor
27/11/2023;12:12:15;101;22;6;35;1PVIP_035_orchid_gauss1.jpg;1;0;2;9645;Fledermaus;4765;3;21323;3;23990;3;21004;1;26;Turkey;4;Bachelor
27/11/2023;12:12:15;101;23;6;91;2PVIP_086_girl.jpg;1;0;0;7147;Vase;4772;3;4264;4;6651;2;1752;1;26;Turkey;4;Bachelor
27/11/2023;12:12:15;101;24;6;117;2PVIP_112_watch.jpg;0;0;;10000;;;;;;;;;1;26;Turkey;4;Bachelor
27/11/2023;12:12:15;101;25;6;19;1PVIP_019_elephant1_gauss2.jpg;1;0;2;7230;Baum;4323;2;2203;4;3097;2;2663;1;26;Turkey;4;Bachelor
27/11/2023;12:12:15;101;26;6;114;2PVIP_109_shoes2_gauss4.jpg;0;0;;10000;;;;;;;;;1;26;Turkey;4;Bachelor
27/11/2023;12:12:15;101;27;6;38;1PVIP_038_python2_gauss2.jpg;1;0;0;5841;Buch;3864;2;3598;5;2628;2;3851;1;26;Turkey;4;Bachelor
27/11/2023;12:12:15;101;28;6;77;2PVIP_071_chair1_gauss3.jpg;1;0;2;6324;Klavier;4572;4;4046;3;3298;4;2041;1;26;Turkey;4;Bachelor
27/11/2023;12:12:15;101;29;6;69;2PVIP_063_brick_gauss5.jpg;1;0;0;7355;Strand;7697;3;2648;4;4237;2;4495;1;26;Turkey;4;Bachelor
27/11/2023;12:12:15;101;30;6;37;1PVIP_037_pfau_gauss3.jpg;1;1;;3917;Pfau;24196;4;9608;5;17592;5;13878;1;26;Turkey;4;Bachelor
27/11/2023;12:12:15;101;31;6;3;1PVIP_003_beehive_gauss2.jpg;1;0;2;6905;Blatt;6082;3;2737;4;2361;3;2511;1;26;Turkey;4;Bachelor
27/11/2023;12:12:15;101;32;6;49;1PVIP_049_turtle_gauss4.jpg;1;0;0;6003;Zahn;3728;3;3730;5;1466;2;1070;1;26;Turkey;4;Bachelor
27/11/2023;12:12:15;101;33;6;50;1PVIP_050_typewriter_gauss5.5.jpg;1;0;0;5025;Schif;24462;2;2999;5;6869;2;13276;1;26;Turkey;4;Bachelor
27/11/2023;12:12:15;101;34;6;12;1PVIP_012_cabin2.jpg;1;0;2;6591;Bus;2938;3;2798;4;4580;3;2442;1;26;Turkey;4;Bachelor
27/11/2023;12:12:15;101;35;6;86;2PVIP_080_ear_gauss2.jpg;1;0;0;6987;Pelikan;4167;3;2951;3;5527;3;2359;1;26;Turkey;4;Bachelor
27/11/2023;12:12:15;101;36;6;26;1PVIP_026_hedgehog.new_gauss2.jpg;1;1;;3294;Igel;2856;4;2960;5;4896;5;4688;1;26;Turkey;4;Bachelor
27/11/2023;12:12:15;101;37;6;62;2PVIP_056_baby3_gauss5.jpg;1;0;0;4643;Maske;3834;2;3712;5;5689;3;2494;1;26;Turkey;4;Bachelor
27/11/2023;12:12:15;101;38;6;116;2PVIP_111_snake3.jpg;0;0;;10000;;;;;;;;;1;26;Turkey;4;Bachelor
27/11/2023;12:12:15;101;39;6;57;1PVIP_117_pepper.jpg;1;0;1;2626;Pfeffer;6578;2;1559;5;2311;2;4711;1;26;Turkey;4;Bachelor
27/11/2023;12:12:15;101;40;6;36;1PVIP_036_pen2.jpg;1;0;0;6446;See;3487;3;2275;4;3175;2;2864;1;26;Turkey;4;Bachelor
27/11/2023;12:12:15;101;41;6;22;1PVIP_022_frog2_gauss4.jpg;1;0;1;5471;Krabbe;5131;2;2956;4;2979;3;2456;1;26;Turkey;4;Bachelor
27/11/2023;12:12:15;101;42;6;83;2PVIP_077_cow3.jpg;1;0;0;5042;Helikopter;5747;3;3013;4;2003;3;3917;1;26;Turkey;4;Bachelor
27/11/2023;12:12:15;101;43;6;20;1PVIP_020_fork.jpg;1;0;2;4759;Vogel;3240;3;2788;4;2794;3;4157;1;26;Turkey;4;Bachelor
27/11/2023;12:12:15;101;44;6;89;2PVIP_084_fish1_gauss3.jpg;1;2;;3493;Haifisch;4468;4;4405;5;3858;4;4150;1;26;Turkey;4;Bachelor
27/11/2023;12:12:15;101;45;6;63;2PVIP_057_bag.jpg;1;0;1;6398;Handy;6637;2;2923;4;3339;3;1921;1;26;Turkey;4;Bachelor
27/11/2023;12:12:15;101;46;6;15;1PVIP_015_crocodile1_gauss2.5.jpg;1;0;0;8510;Adler;3065;5;3619;5;2536;4;4907;1;26;Turkey;4;Bachelor
27/11/2023;12:12:15;101;47;6;29;1PVIP_029_leopard3.jpg;1;0;0;8764;Schwamm;3398;2;3755;5;2873;2;1871;1;26;Turkey;4;Bachelor
27/11/2023;12:12:15;101;48;6;18;1PVIP_018_dog3_gauss2.5.jpg;0;0;;10000;;;;;;;;;1;26;Turkey;4;Bachelor
27/11/2023;12:12:15;101;49;6;13;1PVIP_013_cat.new_gauss3.jpg;1;3;;9488;Hase;2072;3;3160;4;5863;2;1901;1;26;Turkey;4;Bachelor
27/11/2023;12:12:15;101;50;6;55;1PVIP_082_erdbeere_gauss1.jpg;0;0;;10000;;;;;;;;;1;26;Turkey;4;Bachelor
27/11/2023;12:12:15;101;51;6;6;1PVIP_006_bike.jpg;1;1;;3025;Fahrrad;4232;4;3675;5;1333;4;3014;1;26;Turkey;4;Bachelor
27/11/2023;12:12:15;101;52;6;110;2PVIP_105_puppy1_gauss3.jpg;0;0;;10000;;;;;;;;;1;26;Turkey;4;Bachelor
27/11/2023;12:12:15;101;53;6;40;1PVIP_040_robbe_gauss3.jpg;1;3;;1304;Katze;4332;4;2339;5;2771;4;3139;1;26;Turkey;4;Bachelor
27/11/2023;12:12:15;101;54;6;60;1PVIP_120_toaster.jpg;1;0;2;5508;Kuchen;3627;4;2179;5;2987;4;2747;1;26;Turkey;4;Bachelor
27/11/2023;12:12:15;101;55;6;68;2PVIP_062_book2_gauss3.5.jpg;1;1;;2942;Buch;2986;3;3135;5;1936;4;1934;1;26;Turkey;4;Bachelor
27/11/2023;12:12:15;101;56;6;103;2PVIP_098_lion2.jpg;1;0;0;6185;Ski;2890;4;4550;5;1869;4;8413;1;26;Turkey;4;Bachelor
27/11/2023;12:12:15;101;57;6;82;2PVIP_076_computer.new_gauss5.jpg;1;0;0;5011;Sessel;3855;5;5580;5;1417;4;44391;1;26;Turkey;4;Bachelor
27/11/2023;12:12:15;101;58;6;32;1PVIP_032_mountain_gauss3.5.jpg;0;0;;10000;;;;;;;;;1;26;Turkey;4;Bachelor
27/11/2023;12:12:15;101;59;6;30;1PVIP_030_lion1_gauss2.5.jpg;1;1;;3112;Lýwe;3268;5;1543;5;1505;5;11825;1;26;Turkey;4;Bachelor
27/11/2023;12:12:15;101;60;6;74;2PVIP_068_carafe3.jpg;0;0;;10000;;;;;;;;;1;26;Turkey;4;Bachelor
27/11/2023;12:12:15;101;61;6;90;2PVIP_085_frog5.jpg;0;0;;10000;;;;;;;;;1;26;Turkey;4;Bachelor
27/11/2023;12:12:15;101;62;6;70;2PVIP_064_bridge_gauss2.5.jpg;1;3;;4753;Schmetterling;7872;2;3005;4;3010;3;2223;1;26;Turkey;4;Bachelor
27/11/2023;12:12:15;101;63;6;64;2PVIP_058_bagpipe_gauss6.jpg;0;0;;10000;;;;;;;;;1;26;Turkey;4;Bachelor
27/11/2023;12:12:15;101;64;6;88;2PVIP_083_eye.new_gauss2.jpg;1;0;0;3820;Huhn;7295;4;3328;5;2976;4;32752;1;26;Turkey;4;Bachelor
27/11/2023;12:12:15;101;65;6;39;1PVIP_039_rat_gauss1.jpg;1;0;1;3054;Katze;2990;4;4002;5;1231;4;2946;1;26;Turkey;4;Bachelor
27/11/2023;12:12:15;101;66;6;34;1PVIP_034_octopus.new_gauss1.5.jpg;0;0;;10000;;;;;;;;;1;26;Turkey;4;Bachelor
27/11/2023;12:12:15;101;67;6;65;2PVIP_059_bear.new_gauss4.jpg;0;0;;10000;;;;;;;;;1;26;Turkey;4;Bachelor
27/11/2023;12:12:15;101;68;6;96;2PVIP_091_horn.new_gauss3.jpg;1;0;2;4662;Axe;2104;2;2121;4;3018;2;2536;1;26;Turkey;4;Bachelor
27/11/2023;12:12:15;101;69;6;112;2PVIP_107_scorpion_gauss8.jpg;0;0;;10000;;;;;;;;;1;26;Turkey;4;Bachelor
27/11/2023;12:12:15;101;70;6;101;2PVIP_096_lamb_gauss3.jpg;1;1;;2480;Lamm;3082;5;1727;5;1713;5;2467;1;26;Turkey;4;Bachelor
27/11/2023;12:12:15;101;71;6;97;2PVIP_092_jet1_gauss5.jpg;1;0;2;5357;Insel;2644;3;4902;4;1631;3;2058;1;26;Turkey;4;Bachelor
27/11/2023;12:12:15;101;72;6;85;2PVIP_079_drumset_gauss5.jpg;1;0;2;6234;Auto;2654;2;3100;5;2574;3;1772;1;26;Turkey;4;Bachelor
27/11/2023;12:12:15;101;73;6;9;1PVIP_009_railroad_gauss5.jpg;1;0;2;2930;Aquarium;4672;3;3600;5;1917;4;8122;1;26;Turkey;4;Bachelor
27/11/2023;12:12:15;101;74;6;46;1PVIP_046_tiger_gauss2.5.jpg;1;1;;3738;Tiger;4127;5;1324;5;2382;5;7002;1;26;Turkey;4;Bachelor
27/11/2023;12:12:15;101;75;6;120;2PVIP_115_woman.jpg;1;0;0;4775;Hund;2375;4;1842;5;1623;4;1828;1;26;Turkey;4;Bachelor
27/11/2023;12:12:15;101;76;6;25;1PVIP_025_hare.new_gauss2.jpg;1;0;2;4998;Wal;2302;4;3442;4;2357;4;3946;1;26;Turkey;4;Bachelor
27/11/2023;12:12:15;101;77;6;52;1PVIP_052_wolf2.jpg;0;0;;10000;;;;;;;;;1;26;Turkey;4;Bachelor
27/11/2023;12:12:15;101;78;6;53;1PVIP_053_watch2.jpg;0;0;;10000;;;;;;;;;1;26;Turkey;4;Bachelor
27/11/2023;12:12:15;101;79;6;71;2PVIP_065_bulldog5_gauss3.jpg;1;0;1;3090;Rhino;3240;3;4216;5;2485;4;10892;1;26;Turkey;4;Bachelor
27/11/2023;12:12:15;101;80;6;7;1PVIP_007_bird3.jpg;1;0;0;7325;Buch;2537;3;4581;4;2819;2;3258;1;26;Turkey;4;Bachelor
27/11/2023;12:12:15;101;81;6;102;2PVIP_097_leopard7.jpg;0;0;;10000;;;;;;;;;1;26;Turkey;4;Bachelor
27/11/2023;12:12:15;101;82;6;94;2PVIP_089_hammer_gauss2.jpg;0;0;;10000;;;;;;;;;1;26;Turkey;4;Bachelor
27/11/2023;12:12:15;101;83;6;11;1PVIP_011_butterfly2.jpg;0;0;;10000;;;;;;;;;1;26;Turkey;4;Bachelor
27/11/2023;12:12:15;101;84;6;72;2PVIP_066_burro1_gauss3.jpg;1;0;2;4393;Hase;1927;2;2199;5;1958;3;2718;1;26;Turkey;4;Bachelor
27/11/2023;12:12:15;101;85;6;4;1PVIP_004_beetle1_gauss2.5.jpg;1;0;2;2969;Koala;2412;4;2126;4;1887;3;2016;1;26;Turkey;4;Bachelor
27/11/2023;12:12:15;101;86;6;8;1PVIP_008_boat2.jpg;1;2;;2050;Schiff;3717;3;6377;5;1997;4;4255;1;26;Turkey;4;Bachelor
27/11/2023;12:12:15;101;87;6;59;1PVIP_119_sewingmachine.jpg;1;0;2;3038;Flugzeug;3780;3;4629;5;1888;3;1906;1;26;Turkey;4;Bachelor
27/11/2023;12:12:15;101;88;6;16;1PVIP_016_crone_gauss1.5.jpg;1;0;0;4281;Panzer;3415;3;2884;4;2367;3;1922;1;26;Turkey;4;Bachelor
27/11/2023;12:12:15;101;89;6;1;1PVIP_001_accordi2_gauss4.jpg;1;0;2;1989;Schreibmaschine;5274;3;2814;5;1252;3;5628;1;26;Turkey;4;Bachelor
27/11/2023;12:12:15;101;90;6;54;1PVIP_054_toilet_gauss5.jpg;1;0;0;3107;Auto;3119;3;2671;5;2258;4;2492;1;26;Turkey;4;Bachelor
27/11/2023;12:12:15;101;91;6;98;2PVIP_093_kamel_gauss1.5.jpg;1;1;;3200;Kamel;3918;3;4114;5;1539;5;8726;1;26;Turkey;4;Bachelor
27/11/2023;12:12:15;101;92;6;95;2PVIP_090_hawk_gauss4.jpg;1;0;2;8997;Kuh;2632;2;1438;3;3252;2;1958;1;26;Turkey;4;Bachelor
27/11/2023;12:12:15;101;93;6;24;1PVIP_024_hamster2_gauss1.5.jpg;1;2;;2670;Maus;8516;4;3477;4;1880;5;2849;1;26;Turkey;4;Bachelor
27/11/2023;12:12:15;101;94;6;81;2PVIP_075_chair3_gauss5.jpg;1;1;;2456;Stuhl;3078;4;1952;5;1648;5;1668;1;26;Turkey;4;Bachelor
27/11/2023;12:12:15;101;95;6;106;2PVIP_101_orange.jpg;1;2;;2562;Mandarine;4638;4;3236;5;1488;4;2481;1;26;Turkey;4;Bachelor
27/11/2023;12:12:15;101;96;6;33;1PVIP_033_nashorn_gauss2.jpg;1;0;0;7921;Sofa;2173;3;1743;4;2272;3;6670;1;26;Turkey;4;Bachelor
27/11/2023;12:12:15;101;97;6;17;1PVIP_017_deer2_gauss1.jpg;1;1;;5611;Hirsch;4474;4;4998;5;14530;5;13166;1;26;Turkey;4;Bachelor
27/11/2023;12:12:15;101;98;6;119;2PVIP_114_wolf3.jpg;1;1;;3689;Wolf;2323;4;3615;5;1788;5;4811;1;26;Turkey;4;Bachelor
27/11/2023;12:12:15;101;99;6;75;2PVIP_069_cat2.jpg;1;0;1;9525;Elefant;3868;2;2545;3;3714;2;2137;1;26;Turkey;4;Bachelor
27/11/2023;12:12:15;101;100;6;27;1PVIP_027_squirrel.new_gauss4.jpg;1;1;;2095;Eichhýrnchen;13524;3;1653;5;930;3;4025;1;26;Turkey;4;Bachelor
27/11/2023;12:12:15;101;101;6;113;2PVIP_108_shark1_gauss3.jpg;0;0;;10000;;;;;;;;;1;26;Turkey;4;Bachelor
27/11/2023;12:12:15;101;102;6;100;2PVIP_095_knob_gauss1.jpg;1;0;2;3634;Týr;2188;4;2148;5;6125;5;35350;1;26;Turkey;4;Bachelor
27/11/2023;12:12:15;101;103;6;42;1PVIP_042_sheep1_gauss2.5.jpg;0;0;;10000;;;;;;;;;1;26;Turkey;4;Bachelor
27/11/2023;12:12:15;101;104;6;10;1PVIP_010_brain_gauss3.jpg;1;1;;6511;Gehirn;2582;3;2299;4;1342;3;4173;1;26;Turkey;4;Bachelor
27/11/2023;12:12:15;101;105;6;87;2PVIP_081_elephant2_gauss2.jpg;1;0;1;5326;Lamm;3240;3;3730;4;2794;4;4781;1;26;Turkey;4;Bachelor
27/11/2023;12:12:15;101;106;6;84;2PVIP_078_crocodile2_gauss2.jpg;1;1;;2101;Krokodile;4028;5;2755;5;1155;5;3056;1;26;Turkey;4;Bachelor
27/11/2023;12:12:15;101;107;6;79;2PVIP_073_coffee_gauss5.jpg;1;0;0;8657;Eule;3034;2;2740;4;3013;2;1280;1;26;Turkey;4;Bachelor
27/11/2023;12:12:15;101;108;6;76;2PVIP_070_cauliflower.new_gauss3.jpg;1;0;2;2432;Vase;2025;3;1442;5;1392;3;2621;1;26;Turkey;4;Bachelor
27/11/2023;12:12:15;101;109;6;2;1PVIP_002_arrow_gauss2.jpg;0;0;;10000;;;;;;;;;1;26;Turkey;4;Bachelor
27/11/2023;12:12:15;101;110;6;80;2PVIP_074_computer.jpg;1;0;0;5643;Mýlltonne;8650;4;9491;4;2704;5;3189;1;26;Turkey;4;Bachelor
27/11/2023;12:12:15;101;111;6;67;2PVIP_061_boat_gauss3.jpg;1;1;;2354;Boot;2480;4;4732;5;10099;5;3698;1;26;Turkey;4;Bachelor
27/11/2023;12:12:15;101;112;6;23;1PVIP_023_geese_gauss3.jpg;1;0;2;4531;Katze;2390;3;1357;5;1198;3;1898;1;26;Turkey;4;Bachelor
27/11/2023;12:12:15;101;113;6;93;2PVIP_088_gun.jpg;1;0;0;7357;Strasse;9800;2;2718;5;1959;3;2041;1;26;Turkey;4;Bachelor
27/11/2023;12:12:15;101;114;6;109;2PVIP_104_piano.jpg;1;0;2;2026;Messer;2594;3;1196;5;1012;3;1647;1;26;Turkey;4;Bachelor
27/11/2023;12:12:15;101;115;6;66;2PVIP_060_bee2.jpg;0;0;;10000;;;;;;;;;1;26;Turkey;4;Bachelor
27/11/2023;12:12:15;101;116;6;43;1PVIP_043_snail.new_gauss2.5.jpg;1;0;0;2262;Eis;3056;3;2074;4;1717;3;3521;1;26;Turkey;4;Bachelor
27/11/2023;12:12:15;101;117;6;31;1PVIP_031_lizard_gauss2.jpg;0;0;;10000;;;;;;;;;1;26;Turkey;4;Bachelor
27/11/2023;12:12:15;101;118;6;45;1PVIP_045_spider.new_gauss1.jpg;1;0;2;3761;Katze;5137;3;1891;5;1510;3;3864;1;26;Turkey;4;Bachelor
27/11/2023;12:12:15;101;119;6;51;1PVIP_051_wheat_gauss1.5.jpg;1;2;;3711;Grass;43088;3;2393;5;1160;4;4088;1;26;Turkey;4;Bachelor
27/11/2023;12:12:15;101;120;6;28;1PVIP_028_knife.new_gauss1.5.jpg;1;0;0;7893;Bett;1965;2;1678;4;4866;2;1098;1;26;Turkey;4;Bachelor
27/11/2023;12:12:15;101;121;6;14;1PVIP_014_chipmunk_gauss2.jpg;1;2;;2676;Maus;2830;5;1624;5;1174;5;1943;1;26;Turkey;4;Bachelor
27/11/2023;12:12:15;101;122;6;61;2PVIP_055_affe_gauss4.jpg;1;0;0;8244;Maske;2208;2;2322;4;2668;2;1028;1;26;Turkey;4;Bachelor
27/11/2023;12:12:15;101;123;6;73;2PVIP_067_carafe2.jpg;1;1;;3391;Kanne;2193;3;2507;5;1317;4;5916;1;26;Turkey;4;Bachelor
27/11/2023;12:12:15;101;124;6;21;1PVIP_021_fox1_gauss1.jpg;1;1;;1663;Fuchs;2563;5;1440;5;1013;5;1459;1;26;Turkey;4;Bachelor
27/11/2023;12:12:15;101;125;6;111;2PVIP_106_saxophone1_gauss3.jpg;1;0;0;5525;Hand;2240;3;1042;5;1783;3;3196;1;26;Turkey;4;Bachelor
27/11/2023;12:12:15;101;126;6;78;2PVIP_072_cigarette_gauss3.jpg;1;1;;1965;Zigarette;5364;4;1840;5;412;5;13453;1;26;Turkey;4;Bachelor
27/11/2023;12:55:23;102;3;7;1;0PVIP_001_tank2bw_filt1_gauss3.jpg;1;0;0;1181;juj;9406;3;1622;3;556;2;2933;1;20;Germany;5;Abitur
27/11/2023;12:55:23;102;5;7;1;0PVIP_002_pineapplebw_filt1_gauss3.jpg;1;0;0;6037;jj;4467;3;587;3;427;2;1288;1;20;Germany;5;Abitur
27/11/2023;12:55:23;102;7;6;50;1PVIP_050_typewriter_gauss5.5.jpg;1;0;0;4149;Krebs;2788;2;1001;4;728;2;1252;1;20;Germany;5;Abitur
27/11/2023;12:55:23;102;8;6;96;2PVIP_091_horn.new_gauss3.jpg;1;0;2;6979;Messer;8143;3;328;4;2275;2;1518;1;20;Germany;5;Abitur
27/11/2023;12:55:23;102;9;6;71;2PVIP_065_bulldog5_gauss3.jpg;1;1;;3459;Hund;2234;4;1025;3;367;4;1310;1;20;Germany;5;Abitur
27/11/2023;12:55:23;102;10;6;89;2PVIP_084_fish1_gauss3.jpg;1;0;0;3425;Wasserfleck;13445;3;300;2;1895;2;988;1;20;Germany;5;Abitur
27/11/2023;12:55:23;102;11;6;4;1PVIP_004_beetle1_gauss2.5.jpg;0;0;;10000;;;;;;;;;1;20;Germany;5;Abitur
27/11/2023;12:55:23;102;12;6;16;1PVIP_016_crone_gauss1.5.jpg;1;0;2;6740;Tisch;4152;3;1000;4;1415;2;1417;1;20;Germany;5;Abitur
27/11/2023;12:55:23;102;13;6;40;1PVIP_040_robbe_gauss3.jpg;0;0;;10000;;;;;;;;;1;20;Germany;5;Abitur
27/11/2023;12:55:23;102;14;6;58;1PVIP_118_phone_gauss5.jpg;0;0;;10000;;;;;;;;;1;20;Germany;5;Abitur
27/11/2023;12:55:23;102;15;6;107;2PVIP_102_owl_gauss4.jpg;1;0;2;3960;Ballerina;7187;3;1319;4;1578;2;2351;1;20;Germany;5;Abitur
27/11/2023;12:55:23;102;16;6;112;2PVIP_107_scorpion_gauss8.jpg;0;0;;10000;;;;;;;;;1;20;Germany;5;Abitur
27/11/2023;12:55:23;102;17;6;116;2PVIP_111_snake3.jpg;1;0;0;6659;Beet;19252;3;1540;3;461;2;1564;1;20;Germany;5;Abitur
27/11/2023;12:55:23;102;18;6;106;2PVIP_101_orange.jpg;1;1;;3891;Orangen;8659;4;639;5;861;3;2108;1;20;Germany;5;Abitur
27/11/2023;12:55:23;102;19;6;43;1PVIP_043_snail.new_gauss2.5.jpg;1;0;0;8259;Kugel;3891;3;270;3;43;2;874;1;20;Germany;5;Abitur
27/11/2023;12:55:23;102;20;6;64;2PVIP_058_bagpipe_gauss6.jpg;0;0;;10000;;;;;;;;;1;20;Germany;5;Abitur
27/11/2023;12:55:23;102;21;6;70;2PVIP_064_bridge_gauss2.5.jpg;0;0;;10000;;;;;;;;;1;20;Germany;5;Abitur
27/11/2023;12:55:23;102;22;6;97;2PVIP_092_jet1_gauss5.jpg;1;0;2;3630;Pflaanze;3433;4;486;3;250;2;514;1;20;Germany;5;Abitur
27/11/2023;12:55:23;102;23;6;91;2PVIP_086_girl.jpg;1;0;2;6414;Gesicht;4267;3;16;4;936;2;1393;1;20;Germany;5;Abitur
27/11/2023;12:55:23;102;24;6;109;2PVIP_104_piano.jpg;1;0;0;8686;Straýe;4195;4;406;3;110;2;1332;1;20;Germany;5;Abitur
27/11/2023;12:55:23;102;25;6;67;2PVIP_061_boat_gauss3.jpg;1;1;;5000;Boot;2503;4;703;5;314;3;1124;1;20;Germany;5;Abitur
27/11/2023;12:55:23;102;26;6;10;1PVIP_010_brain_gauss3.jpg;1;0;0;8753;Wand;2435;5;1156;5;1261;2;2181;1;20;Germany;5;Abitur
27/11/2023;12:55:23;102;27;6;100;2PVIP_095_knob_gauss1.jpg;0;0;;10000;;;;;;;;;1;20;Germany;5;Abitur
27/11/2023;12:55:23;102;28;6;90;2PVIP_085_frog5.jpg;0;0;;10000;;;;;;;;;1;20;Germany;5;Abitur
27/11/2023;12:55:23;102;29;6;33;1PVIP_033_nashorn_gauss2.jpg;1;0;0;4730;Auto;2689;4;312;4;291;2;417;1;20;Germany;5;Abitur
27/11/2023;12:55:23;102;30;6;118;2PVIP_113_whale.jpg;1;0;0;6371;Abflussrohr;5974;3;370;3;347;2;1928;1;20;Germany;5;Abitur
27/11/2023;12:55:23;102;31;6;99;2PVIP_094_kettle2_gauss3.jpg;0;0;;10000;;;;;;;;;1;20;Germany;5;Abitur
27/11/2023;12:55:23;102;32;6;44;1PVIP_044_snake_gauss1.5.jpg;0;0;;10000;;;;;;;;;1;20;Germany;5;Abitur
27/11/2023;12:55:23;102;33;6;94;2PVIP_089_hammer_gauss2.jpg;1;0;0;5980;Fuýballspieler;6797;4;649;5;455;2;2353;1;20;Germany;5;Abitur
27/11/2023;12:55:23;102;34;6;98;2PVIP_093_kamel_gauss1.5.jpg;0;0;;10000;;;;;;;;;1;20;Germany;5;Abitur
27/11/2023;12:55:23;102;35;6;29;1PVIP_029_leopard3.jpg;1;0;0;4877;Steine;2843;3;56;3;318;2;1518;1;20;Germany;5;Abitur
27/11/2023;12:55:23;102;36;6;31;1PVIP_031_lizard_gauss2.jpg;1;0;0;6983;Skelett;3259;3;572;4;285;2;355;1;20;Germany;5;Abitur
27/11/2023;12:55:23;102;37;6;120;2PVIP_115_woman.jpg;1;2;;7000;Mensch;3112;2;1708;3;766;2;1905;1;20;Germany;5;Abitur
27/11/2023;12:55:23;102;38;6;12;1PVIP_012_cabin2.jpg;1;2;;3258;Haus;2683;3;842;2;1520;3;1069;1;20;Germany;5;Abitur
27/11/2023;12:55:23;102;39;6;11;1PVIP_011_butterfly2.jpg;0;0;;10000;;;;;;;;;1;20;Germany;5;Abitur
27/11/2023;12:55:23;102;40;6;104;2PVIP_099_metro_gauss2.jpg;1;1;;2803;Ubahn;2569;4;882;5;1350;4;1561;1;20;Germany;5;Abitur
27/11/2023;12:55:23;102;41;6;1;1PVIP_001_accordi2_gauss4.jpg;1;0;2;3104;Schreibmaschine;6817;4;913;4;309;3;1194;1;20;Germany;5;Abitur
27/11/2023;12:55:23;102;42;6;63;2PVIP_057_bag.jpg;1;1;;3949;Tasche;2610;3;276;3;210;2;563;1;20;Germany;5;Abitur
27/11/2023;12:55:23;102;43;6;92;2PVIP_087_goat_gauss5.jpg;1;1;;6841;Ziege;2617;5;1004;5;299;5;2105;1;20;Germany;5;Abitur
27/11/2023;12:55:23;102;44;6;62;2PVIP_056_baby3_gauss5.jpg;1;0;2;4766;Gesicht;4751;3;356;4;222;3;980;1;20;Germany;5;Abitur
27/11/2023;12:55:23;102;45;6;101;2PVIP_096_lamb_gauss3.jpg;1;0;1;4510;Kalb;5082;4;1573;4;317;4;3166;1;20;Germany;5;Abitur
27/11/2023;12:55:23;102;46;6;110;2PVIP_105_puppy1_gauss3.jpg;0;0;;10000;;;;;;;;;1;20;Germany;5;Abitur
27/11/2023;12:55:23;102;47;6;87;2PVIP_081_elephant2_gauss2.jpg;0;0;;10000;;;;;;;;;1;20;Germany;5;Abitur
27/11/2023;12:55:23;102;48;6;51;1PVIP_051_wheat_gauss1.5.jpg;1;2;0;3413;Stroh;4298;3;388;2;284;2;946;1;20;Germany;5;Abitur
27/11/2023;12:55:23;102;49;6;15;1PVIP_015_crocodile1_gauss2.5.jpg;0;0;;10000;;;;;;;;;1;20;Germany;5;Abitur
27/11/2023;12:55:23;102;50;6;32;1PVIP_032_mountain_gauss3.5.jpg;1;0;0;7152;Wasser;2902;2;1165;4;2582;2;1573;1;20;Germany;5;Abitur
27/11/2023;12:55:23;102;51;6;7;1PVIP_007_bird3.jpg;0;0;;10000;;;;;;;;;1;20;Germany;5;Abitur
27/11/2023;12:55:23;102;52;6;76;2PVIP_070_cauliflower.new_gauss3.jpg;0;0;;10000;;;;;;;;;1;20;Germany;5;Abitur
27/11/2023;12:55:23;102;53;6;88;2PVIP_083_eye.new_gauss2.jpg;1;0;0;4857;Vogel;4118;3;308;3;80;2;379;1;20;Germany;5;Abitur
27/11/2023;12:55:23;102;54;6;114;2PVIP_109_shoes2_gauss4.jpg;0;0;;10000;;;;;;;;;1;20;Germany;5;Abitur
27/11/2023;12:55:23;102;55;6;73;2PVIP_067_carafe2.jpg;1;2;;5811;Teekanne;3443;3;439;5;1261;2;782;1;20;Germany;5;Abitur
27/11/2023;12:55:23;102;56;6;111;2PVIP_106_saxophone1_gauss3.jpg;0;0;;10000;;;;;;;;;1;20;Germany;5;Abitur
27/11/2023;12:55:23;102;57;6;65;2PVIP_059_bear.new_gauss4.jpg;1;0;0;6156;Menschen;8557;3;893;4;1888;3;1272;1;20;Germany;5;Abitur
27/11/2023;12:55:23;102;58;6;26;1PVIP_026_hedgehog.new_gauss2.jpg;1;1;;4096;Igel;3445;5;1466;5;295;5;369;1;20;Germany;5;Abitur
27/11/2023;12:55:23;102;59;6;47;1PVIP_047_toad2_gauss1.jpg;1;0;0;4280;Laubblýtter;4140;3;1144;2;769;2;834;1;20;Germany;5;Abitur
27/11/2023;12:55:23;102;60;6;23;1PVIP_023_geese_gauss3.jpg;0;0;;10000;;;;;;;;;1;20;Germany;5;Abitur
27/11/2023;12:55:23;102;61;6;49;1PVIP_049_turtle_gauss4.jpg;0;0;;10000;;;;;;;;;1;20;Germany;5;Abitur
27/11/2023;12:55:23;102;62;6;81;2PVIP_075_chair3_gauss5.jpg;0;0;;10000;;;;;;;;;1;20;Germany;5;Abitur
27/11/2023;12:55:23;102;63;6;37;1PVIP_037_pfau_gauss3.jpg;1;0;0;5986;Flammen;2912;3;865;2;774;2;1126;1;20;Germany;5;Abitur
27/11/2023;12:55:23;102;64;6;77;2PVIP_071_chair1_gauss3.jpg;1;0;0;9513;Býhne;2919;4;167;4;264;2;333;1;20;Germany;5;Abitur
27/11/2023;12:55:23;102;65;6;48;1PVIP_048_tomb_gauss3.jpg;0;0;;10000;;;;;;;;;1;20;Germany;5;Abitur
27/11/2023;12:55:23;102;66;6;30;1PVIP_030_lion1_gauss2.5.jpg;1;1;;1926;Tiger;2126;4;346;5;789;5;319;1;20;Germany;5;Abitur
27/11/2023;12:55:23;102;67;6;117;2PVIP_112_watch.jpg;0;0;;10000;;;;;;;;;1;20;Germany;5;Abitur
27/11/2023;12:55:23;102;68;6;22;1PVIP_022_frog2_gauss4.jpg;1;0;1;4972;Fisch;2148;3;582;4;278;2;297;1;20;Germany;5;Abitur
27/11/2023;12:55:23;102;69;6;19;1PVIP_019_elephant1_gauss2.jpg;0;0;;10000;;;;;;;;;1;20;Germany;5;Abitur
27/11/2023;12:55:23;102;70;6;59;1PVIP_119_sewingmachine.jpg;0;0;;10000;;;;;;;;;1;20;Germany;5;Abitur
27/11/2023;12:55:23;102;71;6;69;2PVIP_063_brick_gauss5.jpg;1;0;0;5431;Fluss;48251;4;296;4;469;2;1986;1;20;Germany;5;Abitur
27/11/2023;12:55:23;102;72;6;93;2PVIP_088_gun.jpg;1;1;;4604;Pistole;4000;3;1152;5;474;2;375;1;20;Germany;5;Abitur
27/11/2023;12:55:23;102;73;6;85;2PVIP_079_drumset_gauss5.jpg;1;1;;1789;Schlagzeug;3237;2;1093;4;562;5;364;1;20;Germany;5;Abitur
27/11/2023;12:55:23;102;74;6;5;1PVIP_005_bell_gauss1.5.jpg;0;0;;10000;;;;;;;;;1;20;Germany;5;Abitur
27/11/2023;12:55:23;102;75;6;119;2PVIP_114_wolf3.jpg;0;0;;10000;;;;;;;;;1;20;Germany;5;Abitur
27/11/2023;12:55:23;102;76;6;95;2PVIP_090_hawk_gauss4.jpg;0;0;;10000;;;;;;;;;1;20;Germany;5;Abitur
27/11/2023;12:55:23;102;77;6;14;1PVIP_014_chipmunk_gauss2.jpg;1;0;2;5888;Felsen;2637;3;304;4;1788;2;1176;1;20;Germany;5;Abitur
27/11/2023;12:55:23;102;78;6;61;2PVIP_055_affe_gauss4.jpg;0;0;;10000;;;;;;;;;1;20;Germany;5;Abitur
27/11/2023;12:55:23;102;79;6;56;1PVIP_116_otter.jpg;1;0;2;6998;Býr;2153;4;370;4;283;2;577;1;20;Germany;5;Abitur
27/11/2023;12:55:23;102;80;6;103;2PVIP_098_lion2.jpg;1;0;0;9969;Meer;1675;3;271;3;252;2;307;1;20;Germany;5;Abitur
27/11/2023;12:55:23;102;81;6;3;1PVIP_003_beehive_gauss2.jpg;0;0;;10000;;;;;;;;;1;20;Germany;5;Abitur
27/11/2023;12:55:23;102;82;6;86;2PVIP_080_ear_gauss2.jpg;0;0;;10000;;;;;;;;;1;20;Germany;5;Abitur
27/11/2023;12:55:23;102;83;6;20;1PVIP_020_fork.jpg;1;0;0;7329;Vogel;1869;2;328;4;355;3;1150;1;20;Germany;5;Abitur
27/11/2023;12:55:23;102;84;6;83;2PVIP_077_cow3.jpg;1;0;0;5889;Landschaft;3439;4;365;4;422;2;889;1;20;Germany;5;Abitur
27/11/2023;12:55:23;102;85;6;8;1PVIP_008_boat2.jpg;1;0;0;5764;Hafen;3967;4;296;2;373;3;401;1;20;Germany;5;Abitur
27/11/2023;12:55:23;102;86;6;41;1PVIP_041_rose.jpg;0;0;;10000;;;;;;;;;1;20;Germany;5;Abitur
27/11/2023;12:55:23;102;87;6;35;1PVIP_035_orchid_gauss1.jpg;0;0;;10000;;;;;;;;;1;20;Germany;5;Abitur
27/11/2023;12:55:23;102;88;6;55;1PVIP_082_erdbeere_gauss1.jpg;0;0;;10000;;;;;;;;;1;20;Germany;5;Abitur
27/11/2023;12:55:23;102;89;6;46;1PVIP_046_tiger_gauss2.5.jpg;1;1;;7324;Tiger;2015;5;1056;5;941;5;1225;1;20;Germany;5;Abitur
27/11/2023;12:55:23;102;90;6;42;1PVIP_042_sheep1_gauss2.5.jpg;1;0;1;8061;Kuh;2539;3;377;2;402;2;1068;1;20;Germany;5;Abitur
27/11/2023;12:55:23;102;91;6;105;2PVIP_100_mirror_gauss4.jpg;1;1;;6868;Spiegel;4168;3;385;2;265;2;276;1;20;Germany;5;Abitur
27/11/2023;12:55:23;102;92;6;75;2PVIP_069_cat2.jpg;1;0;0;6174;Gras;1776;4;1013;3;340;2;1114;1;20;Germany;5;Abitur
27/11/2023;12:55:23;102;93;6;102;2PVIP_097_leopard7.jpg;1;2;;6328;Jaguar;16925;2;472;3;237;4;3086;1;20;Germany;5;Abitur
27/11/2023;12:55:23;102;94;6;28;1PVIP_028_knife.new_gauss1.5.jpg;0;0;;10000;;;;;;;;;1;20;Germany;5;Abitur
27/11/2023;12:55:23;102;95;6;54;1PVIP_054_toilet_gauss5.jpg;1;0;0;9615;Maske;2495;3;3282;4;1541;2;527;1;20;Germany;5;Abitur
27/11/2023;12:55:23;102;96;6;2;1PVIP_002_arrow_gauss2.jpg;0;0;;10000;;;;;;;;;1;20;Germany;5;Abitur
27/11/2023;12:55:23;102;97;6;53;1PVIP_053_watch2.jpg;1;0;2;4767;Aschenbecher;3316;4;448;5;662;3;1109;1;20;Germany;5;Abitur
27/11/2023;12:55:23;102;98;6;82;2PVIP_076_computer.new_gauss5.jpg;1;1;;3053;Laptop;2217;4;361;5;483;4;168;1;20;Germany;5;Abitur
27/11/2023;12:55:23;102;99;6;84;2PVIP_078_crocodile2_gauss2.jpg;0;0;;10000;;;;;;;;;1;20;Germany;5;Abitur
27/11/2023;12:55:23;102;100;6;79;2PVIP_073_coffee_gauss5.jpg;0;0;;10000;;;;;;;;;1;20;Germany;5;Abitur
27/11/2023;12:55:23;102;101;6;52;1PVIP_052_wolf2.jpg;1;0;0;9497;meer;7587;4;257;4;510;2;1310;1;20;Germany;5;Abitur
27/11/2023;12:55:23;102;102;6;36;1PVIP_036_pen2.jpg;0;0;;10000;;;;;;;;;1;20;Germany;5;Abitur
27/11/2023;12:55:23;102;103;6;115;2PVIP_110_ski.new_gauss1.jpg;1;1;;8050;Skifahrer;19739;2;1690;2;302;3;1170;1;20;Germany;5;Abitur
27/11/2023;12:55:23;102;104;6;13;1PVIP_013_cat.new_gauss3.jpg;0;0;;10000;;;;;;;;;1;20;Germany;5;Abitur
27/11/2023;12:55:23;102;105;6;18;1PVIP_018_dog3_gauss2.5.jpg;1;0;0;5179;Schiff;2600;4;1008;4;431;3;609;1;20;Germany;5;Abitur
27/11/2023;12:55:23;102;106;6;24;1PVIP_024_hamster2_gauss1.5.jpg;0;0;;10000;;;;;;;;;1;20;Germany;5;Abitur
27/11/2023;12:55:23;102;107;6;34;1PVIP_034_octopus.new_gauss1.5.jpg;1;0;0;7411;Gesicht;2317;4;72;5;221;2;717;1;20;Germany;5;Abitur
27/11/2023;12:55:23;102;108;6;25;1PVIP_025_hare.new_gauss2.jpg;0;0;;10000;;;;;;;;;1;20;Germany;5;Abitur
27/11/2023;12:55:23;102;109;6;21;1PVIP_021_fox1_gauss1.jpg;1;0;2;6756;Gras;5560;3;1042;5;815;2;1544;1;20;Germany;5;Abitur
27/11/2023;12:55:23;102;110;6;38;1PVIP_038_python2_gauss2.jpg;0;0;;10000;;;;;;;;;1;20;Germany;5;Abitur
27/11/2023;12:55:23;102;111;6;60;1PVIP_120_toaster.jpg;1;0;1;7787;kissen;3837;4;423;2;638;2;949;1;20;Germany;5;Abitur
27/11/2023;12:55:23;102;112;6;45;1PVIP_045_spider.new_gauss1.jpg;0;0;;10000;;;;;;;;;1;20;Germany;5;Abitur
27/11/2023;12:55:23;102;113;6;17;1PVIP_017_deer2_gauss1.jpg;1;1;;4422;Reh;2119;5;933;5;1816;5;1481;1;20;Germany;5;Abitur
27/11/2023;12:55:23;102;114;6;74;2PVIP_068_carafe3.jpg;1;2;;7921;Vase;1944;3;822;2;1132;2;2182;1;20;Germany;5;Abitur
27/11/2023;12:55:23;102;115;6;80;2PVIP_074_computer.jpg;1;0;0;9657;Koffer;2881;3;1111;3;258;2;583;1;20;Germany;5;Abitur
27/11/2023;12:55:23;102;116;6;72;2PVIP_066_burro1_gauss3.jpg;0;0;;10000;;;;;;;;;1;20;Germany;5;Abitur
27/11/2023;12:55:23;102;117;6;66;2PVIP_060_bee2.jpg;1;1;;2433;Biene;2106;4;384;5;601;3;1526;1;20;Germany;5;Abitur
27/11/2023;12:55:23;102;118;6;78;2PVIP_072_cigarette_gauss3.jpg;1;1;;7748;Zigarette;3078;2;1945;5;513;4;1168;1;20;Germany;5;Abitur
27/11/2023;12:55:23;102;119;6;27;1PVIP_027_squirrel.new_gauss4.jpg;0;0;;10000;;;;;;;;;1;20;Germany;5;Abitur
27/11/2023;12:55:23;102;120;6;39;1PVIP_039_rat_gauss1.jpg;1;1;;3086;Ratte;1763;4;693;3;1745;4;664;1;20;Germany;5;Abitur
27/11/2023;12:55:23;102;121;6;6;1PVIP_006_bike.jpg;1;1;;5355;Fahrrad;2911;5;786;2;506;5;377;1;20;Germany;5;Abitur
27/11/2023;12:55:23;102;122;6;57;1PVIP_117_pepper.jpg;1;0;0;6873;Tasche;2099;4;513;4;260;2;376;1;20;Germany;5;Abitur
27/11/2023;12:55:23;102;123;6;113;2PVIP_108_shark1_gauss3.jpg;1;0;0;7022;Mýllbeutel;7208;2;268;3;265;2;88;1;20;Germany;5;Abitur
27/11/2023;12:55:23;102;124;6;9;1PVIP_009_railroad_gauss5.jpg;1;1;;6386;Zug;3083;4;321;4;252;3;326;1;20;Germany;5;Abitur
27/11/2023;12:55:23;102;125;6;108;2PVIP_103_panda_gauss6.jpg;0;0;;10000;;;;;;;;;1;20;Germany;5;Abitur
27/11/2023;12:55:23;102;126;6;68;2PVIP_062_book2_gauss3.5.jpg;1;1;;8179;Buch;5188;3;77;3;162;2;222;1;20;Germany;5;Abitur
27/11/2023;14:11:08;103;3;7;1;0PVIP_001_tank2bw_filt1_gauss3.jpg;0;0;;10000;;;;;;;;;1;26;Germany/Deutschland;5;Bachelor
27/11/2023;14:11:08;103;5;7;1;0PVIP_002_pineapplebw_filt1_gauss3.jpg;0;0;;10000;Pfanze;5688;2;3590;2;5819;2;5351;1;26;Germany/Deutschland;5;Bachelor
27/11/2023;14:11:08;103;7;6;31;1PVIP_031_lizard_gauss2.jpg;0;0;;10000;;;;;;;;;1;26;Germany/Deutschland;5;Bachelor
27/11/2023;14:11:08;103;8;6;2;1PVIP_002_arrow_gauss2.jpg;0;0;;10000;;;;;;;;;1;26;Germany/Deutschland;5;Bachelor
27/11/2023;14:11:08;103;9;6;86;2PVIP_080_ear_gauss2.jpg;0;0;;10000;;;;;;;;;1;26;Germany/Deutschland;5;Bachelor
27/11/2023;14:11:08;103;10;6;52;1PVIP_052_wolf2.jpg;0;0;;10000;;;;;;;;;1;26;Germany/Deutschland;5;Bachelor
27/11/2023;14:11:08;103;11;6;19;1PVIP_019_elephant1_gauss2.jpg;0;0;;10000;;;;;;;;;1;26;Germany/Deutschland;5;Bachelor
27/11/2023;14:11:08;103;12;6;27;1PVIP_027_squirrel.new_gauss4.jpg;0;0;;10000;;;;;;;;;1;26;Germany/Deutschland;5;Bachelor
27/11/2023;14:11:08;103;13;6;1;1PVIP_001_accordi2_gauss4.jpg;1;0;2;2432;Schreibmaschine;3992;2;3288;2;2634;2;2069;1;26;Germany/Deutschland;5;Bachelor
27/11/2023;14:11:08;103;14;6;93;2PVIP_088_gun.jpg;1;1;;9574;Gewehr;2134;3;2965;2;2532;3;1447;1;26;Germany/Deutschland;5;Bachelor
27/11/2023;14:11:08;103;15;6;87;2PVIP_081_elephant2_gauss2.jpg;0;0;;10000;;;;;;;;;1;26;Germany/Deutschland;5;Bachelor
27/11/2023;14:11:08;103;16;6;10;1PVIP_010_brain_gauss3.jpg;0;0;;10000;;;;;;;;;1;26;Germany/Deutschland;5;Bachelor
27/11/2023;14:11:08;103;17;6;65;2PVIP_059_bear.new_gauss4.jpg;0;0;;10000;;;;;;;;;1;26;Germany/Deutschland;5;Bachelor
27/11/2023;14:11:08;103;18;6;70;2PVIP_064_bridge_gauss2.5.jpg;0;0;;10000;;;;;;;;;1;26;Germany/Deutschland;5;Bachelor
27/11/2023;14:11:08;103;19;6;41;1PVIP_041_rose.jpg;1;1;;4019;Rose;2426;2;1875;3;1903;3;1496;1;26;Germany/Deutschland;5;Bachelor
27/11/2023;14:11:08;103;20;6;43;1PVIP_043_snail.new_gauss2.5.jpg;0;0;;10000;;;;;;;;;1;26;Germany/Deutschland;5;Bachelor
27/11/2023;14:11:08;103;21;6;115;2PVIP_110_ski.new_gauss1.jpg;0;0;;10000;;;;;;;;;1;26;Germany/Deutschland;5;Bachelor
27/11/2023;14:11:08;103;22;6;34;1PVIP_034_octopus.new_gauss1.5.jpg;0;0;;10000;;;;;;;;;1;26;Germany/Deutschland;5;Bachelor
27/11/2023;14:11:08;103;23;6;77;2PVIP_071_chair1_gauss3.jpg;0;0;;10000;;;;;;;;;1;26;Germany/Deutschland;5;Bachelor
27/11/2023;14:11:08;103;24;6;88;2PVIP_083_eye.new_gauss2.jpg;0;0;;10000;;;;;;;;;1;26;Germany/Deutschland;5;Bachelor
27/11/2023;14:11:08;103;25;6;89;2PVIP_084_fish1_gauss3.jpg;0;0;;10000;;;;;;;;;1;26;Germany/Deutschland;5;Bachelor
27/11/2023;14:11:08;103;26;6;45;1PVIP_045_spider.new_gauss1.jpg;0;0;;10000;;;;;;;;;1;26;Germany/Deutschland;5;Bachelor
27/11/2023;14:11:08;103;27;6;72;2PVIP_066_burro1_gauss3.jpg;0;0;;10000;;;;;;;;;1;26;Germany/Deutschland;5;Bachelor
27/11/2023;14:11:08;103;28;6;38;1PVIP_038_python2_gauss2.jpg;0;0;;10000;;;;;;;;;1;26;Germany/Deutschland;5;Bachelor
27/11/2023;14:11:08;103;29;6;107;2PVIP_102_owl_gauss4.jpg;0;0;;10000;;;;;;;;;1;26;Germany/Deutschland;5;Bachelor
27/11/2023;14:11:08;103;30;6;56;1PVIP_116_otter.jpg;0;0;;10000;;;;;;;;;1;26;Germany/Deutschland;5;Bachelor
27/11/2023;14:11:08;103;31;6;14;1PVIP_014_chipmunk_gauss2.jpg;1;0;0;3534;Gesicht;3740;2;1469;2;2905;2;1990;1;26;Germany/Deutschland;5;Bachelor
27/11/2023;14:11:08;103;32;6;102;2PVIP_097_leopard7.jpg;0;0;;10000;;;;;;;;;1;26;Germany/Deutschland;5;Bachelor
27/11/2023;14:11:08;103;33;6;48;1PVIP_048_tomb_gauss3.jpg;0;0;;10000;;;;;;;;;1;26;Germany/Deutschland;5;Bachelor
27/11/2023;14:11:08;103;34;6;95;2PVIP_090_hawk_gauss4.jpg;0;0;;10000;;;;;;;;;1;26;Germany/Deutschland;5;Bachelor
27/11/2023;14:11:08;103;35;6;21;1PVIP_021_fox1_gauss1.jpg;1;0;2;3715;Wald;3003;2;754;3;2587;4;1828;1;26;Germany/Deutschland;5;Bachelor
27/11/2023;14:11:08;103;36;6;20;1PVIP_020_fork.jpg;1;0;0;9329;Vogel;2026;2;1225;3;1535;3;1452;1;26;Germany/Deutschland;5;Bachelor
27/11/2023;14:11:08;103;37;6;6;1PVIP_006_bike.jpg;1;1;;7080;Fahrrad;4147;3;3303;4;1544;3;2351;1;26;Germany/Deutschland;5;Bachelor
27/11/2023;14:11:08;103;38;6;100;2PVIP_095_knob_gauss1.jpg;0;0;;10000;;;;;;;;;1;26;Germany/Deutschland;5;Bachelor
27/11/2023;14:11:08;103;39;6;9;1PVIP_009_railroad_gauss5.jpg;0;0;;10000;;;;;;;;;1;26;Germany/Deutschland;5;Bachelor
27/11/2023;14:11:08;103;40;6;25;1PVIP_025_hare.new_gauss2.jpg;0;0;;10000;;;;;;;;;1;26;Germany/Deutschland;5;Bachelor
27/11/2023;14:11:08;103;41;6;16;1PVIP_016_crone_gauss1.5.jpg;1;0;0;4634;Boot;2775;3;1065;3;1015;3;1253;1;26;Germany/Deutschland;5;Bachelor
27/11/2023;14:11:08;103;42;6;46;1PVIP_046_tiger_gauss2.5.jpg;0;0;;10000;;;;;;;;;1;26;Germany/Deutschland;5;Bachelor
27/11/2023;14:11:08;103;43;6;84;2PVIP_078_crocodile2_gauss2.jpg;0;0;;10000;;;;;;;;;1;26;Germany/Deutschland;5;Bachelor
27/11/2023;14:11:08;103;44;6;66;2PVIP_060_bee2.jpg;1;1;;3648;Biene;1651;3;1141;3;3663;4;1348;1;26;Germany/Deutschland;5;Bachelor
27/11/2023;14:11:08;103;45;6;71;2PVIP_065_bulldog5_gauss3.jpg;1;2;1;7600;Mops;5498;4;1613;4;2836;4;3075;1;26;Germany/Deutschland;5;Bachelor
27/11/2023;14:11:08;103;46;6;101;2PVIP_096_lamb_gauss3.jpg;1;1;;6602;Lamm;1695;4;1419;4;1289;5;2005;1;26;Germany/Deutschland;5;Bachelor
27/11/2023;14:11:08;103;47;6;30;1PVIP_030_lion1_gauss2.5.jpg;1;1;;1146;Lýwe;2213;4;2628;5;545;5;1764;1;26;Germany/Deutschland;5;Bachelor
27/11/2023;14:11:08;103;48;6;49;1PVIP_049_turtle_gauss4.jpg;0;0;;10000;;;;;;;;;1;26;Germany/Deutschland;5;Bachelor
27/11/2023;14:11:08;103;49;6;12;1PVIP_012_cabin2.jpg;1;2;;2736;Haus;2081;3;1401;3;1576;4;3304;1;26;Germany/Deutschland;5;Bachelor
27/11/2023;14:11:08;103;50;6;50;1PVIP_050_typewriter_gauss5.5.jpg;1;0;2;7772;Reiýverschluss;4737;3;1820;3;858;3;2039;1;26;Germany/Deutschland;5;Bachelor
27/11/2023;14:11:08;103;51;6;90;2PVIP_085_frog5.jpg;0;0;;10000;;;;;;;;;1;26;Germany/Deutschland;5;Bachelor
27/11/2023;14:11:08;103;52;6;24;1PVIP_024_hamster2_gauss1.5.jpg;0;0;;10000;;;;;;;;;1;26;Germany/Deutschland;5;Bachelor
27/11/2023;14:11:08;103;53;6;105;2PVIP_100_mirror_gauss4.jpg;1;1;;2490;Spiegel;2217;3;1729;4;1634;5;1677;1;26;Germany/Deutschland;5;Bachelor
27/11/2023;14:11:08;103;54;6;57;1PVIP_117_pepper.jpg;1;0;2;7360;Musikinstrument;3666;3;1367;3;1543;4;1883;1;26;Germany/Deutschland;5;Bachelor
27/11/2023;14:11:08;103;55;6;85;2PVIP_079_drumset_gauss5.jpg;1;1;;2781;Schlagzeug;2764;3;1942;4;703;5;2116;1;26;Germany/Deutschland;5;Bachelor
27/11/2023;14:11:08;103;56;6;83;2PVIP_077_cow3.jpg;0;0;;10000;;;;;;;;;1;26;Germany/Deutschland;5;Bachelor
27/11/2023;14:11:08;103;57;6;36;1PVIP_036_pen2.jpg;0;0;;10000;;;;;;;;;1;26;Germany/Deutschland;5;Bachelor
27/11/2023;14:11:08;103;58;6;120;2PVIP_115_woman.jpg;0;0;;10000;;;;;;;;;1;26;Germany/Deutschland;5;Bachelor
27/11/2023;14:11:08;103;59;6;53;1PVIP_053_watch2.jpg;0;0;;10000;;;;;;;;;1;26;Germany/Deutschland;5;Bachelor
27/11/2023;14:11:08;103;60;6;54;1PVIP_054_toilet_gauss5.jpg;0;0;;10000;;;;;;;;;1;26;Germany/Deutschland;5;Bachelor
27/11/2023;14:11:08;103;61;6;22;1PVIP_022_frog2_gauss4.jpg;1;0;1;4132;Fisch;2358;3;2613;3;2098;3;1364;1;26;Germany/Deutschland;5;Bachelor
27/11/2023;14:11:08;103;62;6;82;2PVIP_076_computer.new_gauss5.jpg;0;0;;10000;;;;;;;;;1;26;Germany/Deutschland;5;Bachelor
27/11/2023;14:11:08;103;63;6;39;1PVIP_039_rat_gauss1.jpg;0;0;;10000;;;;;;;;;1;26;Germany/Deutschland;5;Bachelor
27/11/2023;14:11:08;103;64;6;42;1PVIP_042_sheep1_gauss2.5.jpg;0;0;;10000;;;;;;;;;1;26;Germany/Deutschland;5;Bachelor
27/11/2023;14:11:08;103;65;6;74;2PVIP_068_carafe3.jpg;0;0;;10000;;;;;;;;;1;26;Germany/Deutschland;5;Bachelor
27/11/2023;14:11:08;103;66;6;28;1PVIP_028_knife.new_gauss1.5.jpg;0;0;;10000;;;;;;;;;1;26;Germany/Deutschland;5;Bachelor
27/11/2023;14:11:08;103;67;6;47;1PVIP_047_toad2_gauss1.jpg;0;0;;10000;;;;;;;;;1;26;Germany/Deutschland;5;Bachelor
27/11/2023;14:11:08;103;68;6;106;2PVIP_101_orange.jpg;0;0;;10000;;;;;;;;;1;26;Germany/Deutschland;5;Bachelor
27/11/2023;14:11:08;103;69;6;80;2PVIP_074_computer.jpg;0;0;;10000;;;;;;;;;1;26;Germany/Deutschland;5;Bachelor
27/11/2023;14:11:08;103;70;6;67;2PVIP_061_boat_gauss3.jpg;0;0;;10000;;;;;;;;;1;26;Germany/Deutschland;5;Bachelor
27/11/2023;14:11:08;103;71;6;98;2PVIP_093_kamel_gauss1.5.jpg;0;0;;10000;;;;;;;;;1;26;Germany/Deutschland;5;Bachelor
27/11/2023;14:11:08;103;72;6;35;1PVIP_035_orchid_gauss1.jpg;0;0;;10000;;;;;;;;;1;26;Germany/Deutschland;5;Bachelor
27/11/2023;14:11:08;103;73;6;99;2PVIP_094_kettle2_gauss3.jpg;0;0;;10000;;;;;;;;;1;26;Germany/Deutschland;5;Bachelor
27/11/2023;14:11:08;103;74;6;119;2PVIP_114_wolf3.jpg;0;0;;10000;;;;;;;;;1;26;Germany/Deutschland;5;Bachelor
27/11/2023;14:11:08;103;75;6;26;1PVIP_026_hedgehog.new_gauss2.jpg;1;1;;2087;Igel;1607;3;1313;4;2100;3;1609;1;26;Germany/Deutschland;5;Bachelor
27/11/2023;14:11:08;103;76;6;44;1PVIP_044_snake_gauss1.5.jpg;0;0;;10000;;;;;;;;;1;26;Germany/Deutschland;5;Bachelor
27/11/2023;14:11:08;103;77;6;62;2PVIP_056_baby3_gauss5.jpg;0;0;;10000;;;;;;;;;1;26;Germany/Deutschland;5;Bachelor
27/11/2023;14:11:08;103;78;6;96;2PVIP_091_horn.new_gauss3.jpg;0;0;;10000;;;;;;;;;1;26;Germany/Deutschland;5;Bachelor
27/11/2023;14:11:08;103;79;6;33;1PVIP_033_nashorn_gauss2.jpg;0;0;;10000;;;;;;;;;1;26;Germany/Deutschland;5;Bachelor
27/11/2023;14:11:08;103;80;6;61;2PVIP_055_affe_gauss4.jpg;0;0;;10000;;;;;;;;;1;26;Germany/Deutschland;5;Bachelor
27/11/2023;14:11:08;103;81;6;73;2PVIP_067_carafe2.jpg;0;0;;10000;;;;;;;;;1;26;Germany/Deutschland;5;Bachelor
27/11/2023;14:11:08;103;82;6;64;2PVIP_058_bagpipe_gauss6.jpg;1;0;0;8020;Fallschirmspringer;3896;4;1900;4;1383;4;2006;1;26;Germany/Deutschland;5;Bachelor
27/11/2023;14:11:08;103;83;6;76;2PVIP_070_cauliflower.new_gauss3.jpg;1;0;0;5834;Korallenriff;4907;3;1692;2;1519;3;2756;1;26;Germany/Deutschland;5;Bachelor
27/11/2023;14:11:08;103;84;6;108;2PVIP_103_panda_gauss6.jpg;0;0;;10000;;;;;;;;;1;26;Germany/Deutschland;5;Bachelor
27/11/2023;14:11:08;103;85;6;81;2PVIP_075_chair3_gauss5.jpg;0;0;;10000;;;;;;;;;1;26;Germany/Deutschland;5;Bachelor
27/11/2023;14:11:08;103;86;6;55;1PVIP_082_erdbeere_gauss1.jpg;0;0;;10000;;;;;;;;;1;26;Germany/Deutschland;5;Bachelor
27/11/2023;14:11:08;103;87;6;103;2PVIP_098_lion2.jpg;0;0;;10000;;;;;;;;;1;26;Germany/Deutschland;5;Bachelor
27/11/2023;14:11:08;103;88;6;112;2PVIP_107_scorpion_gauss8.jpg;0;0;;10000;;;;;;;;;1;26;Germany/Deutschland;5;Bachelor
27/11/2023;14:11:08;103;89;6;116;2PVIP_111_snake3.jpg;0;0;;10000;;;;;;;;;1;26;Germany/Deutschland;5;Bachelor
27/11/2023;14:11:08;103;90;6;58;1PVIP_118_phone_gauss5.jpg;0;0;;10000;;;;;;;;;1;26;Germany/Deutschland;5;Bachelor
27/11/2023;14:11:08;103;91;6;69;2PVIP_063_brick_gauss5.jpg;0;0;;10000;;;;;;;;;1;26;Germany/Deutschland;5;Bachelor
27/11/2023;14:11:08;103;92;6;114;2PVIP_109_shoes2_gauss4.jpg;0;0;;10000;;;;;;;;;1;26;Germany/Deutschland;5;Bachelor
27/11/2023;14:11:08;103;93;6;78;2PVIP_072_cigarette_gauss3.jpg;0;0;;10000;;;;;;;;;1;26;Germany/Deutschland;5;Bachelor
27/11/2023;14:11:08;103;94;6;15;1PVIP_015_crocodile1_gauss2.5.jpg;0;0;;10000;;;;;;;;;1;26;Germany/Deutschland;5;Bachelor
27/11/2023;14:11:08;103;95;6;75;2PVIP_069_cat2.jpg;0;0;;10000;;;;;;;;;1;26;Germany/Deutschland;5;Bachelor
27/11/2023;14:11:08;103;96;6;4;1PVIP_004_beetle1_gauss2.5.jpg;0;0;;10000;;;;;;;;;1;26;Germany/Deutschland;5;Bachelor
27/11/2023;14:11:08;103;97;6;29;1PVIP_029_leopard3.jpg;0;0;;10000;;;;;;;;;1;26;Germany/Deutschland;5;Bachelor
27/11/2023;14:11:08;103;98;6;117;2PVIP_112_watch.jpg;1;0;0;4408;Parkplatzzeichen;8150;3;3877;4;1647;2;3116;1;26;Germany/Deutschland;5;Bachelor
27/11/2023;14:11:08;103;99;6;60;1PVIP_120_toaster.jpg;0;0;;10000;;;;;;;;;1;26;Germany/Deutschland;5;Bachelor
27/11/2023;14:11:08;103;100;6;11;1PVIP_011_butterfly2.jpg;0;0;;10000;;;;;;;;;1;26;Germany/Deutschland;5;Bachelor
27/11/2023;14:11:08;103;101;6;13;1PVIP_013_cat.new_gauss3.jpg;0;0;;10000;;;;;;;;;1;26;Germany/Deutschland;5;Bachelor
27/11/2023;14:11:08;103;102;6;109;2PVIP_104_piano.jpg;1;1;;7656;Klavier;1822;2;1514;4;1573;2;1320;1;26;Germany/Deutschland;5;Bachelor
27/11/2023;14:11:08;103;103;6;92;2PVIP_087_goat_gauss5.jpg;1;1;;3860;Ziege;2104;4;1514;5;1333;5;3839;1;26;Germany/Deutschland;5;Bachelor
27/11/2023;14:11:08;103;104;6;113;2PVIP_108_shark1_gauss3.jpg;0;0;;10000;;;;;;;;;1;26;Germany/Deutschland;5;Bachelor
27/11/2023;14:11:08;103;105;6;7;1PVIP_007_bird3.jpg;0;0;;10000;;;;;;;;;1;26;Germany/Deutschland;5;Bachelor
27/11/2023;14:11:08;103;106;6;37;1PVIP_037_pfau_gauss3.jpg;0;0;;10000;;;;;;;;;1;26;Germany/Deutschland;5;Bachelor
27/11/2023;14:11:08;103;107;6;111;2PVIP_106_saxophone1_gauss3.jpg;0;0;;10000;;;;;;;;;1;26;Germany/Deutschland;5;Bachelor
27/11/2023;14:11:08;103;108;6;94;2PVIP_089_hammer_gauss2.jpg;0;0;;10000;;;;;;;;;1;26;Germany/Deutschland;5;Bachelor
27/11/2023;14:11:08;103;109;6;51;1PVIP_051_wheat_gauss1.5.jpg;1;0;0;2892;Farn;1833;3;1230;2;1284;3;990;1;26;Germany/Deutschland;5;Bachelor
27/11/2023;14:11:08;103;110;6;3;1PVIP_003_beehive_gauss2.jpg;1;0;0;7790;Blýtter;1846;2;1254;2;730;2;1081;1;26;Germany/Deutschland;5;Bachelor
27/11/2023;14:11:08;103;111;6;68;2PVIP_062_book2_gauss3.5.jpg;1;1;;2524;aufgeschlagenes Buch;8592;3;1112;2;323;4;2669;1;26;Germany/Deutschland;5;Bachelor
27/11/2023;14:11:08;103;112;6;59;1PVIP_119_sewingmachine.jpg;0;0;;10000;;;;;;;;;1;26;Germany/Deutschland;5;Bachelor
27/11/2023;14:11:08;103;113;6;32;1PVIP_032_mountain_gauss3.5.jpg;0;0;;10000;;;;;;;;;1;26;Germany/Deutschland;5;Bachelor
27/11/2023;14:11:08;103;114;6;63;2PVIP_057_bag.jpg;1;0;0;9708;Windschutzscheibe;48596;3;1954;4;1162;4;1528;1;26;Germany/Deutschland;5;Bachelor
27/11/2023;14:11:08;103;115;6;23;1PVIP_023_geese_gauss3.jpg;0;0;;10000;;;;;;;;;1;26;Germany/Deutschland;5;Bachelor
27/11/2023;14:11:08;103;116;6;91;2PVIP_086_girl.jpg;0;0;;10000;;;;;;;;;1;26;Germany/Deutschland;5;Bachelor
27/11/2023;14:11:08;103;117;6;8;1PVIP_008_boat2.jpg;0;0;;10000;;;;;;;;;1;26;Germany/Deutschland;5;Bachelor
27/11/2023;14:11:08;103;118;6;5;1PVIP_005_bell_gauss1.5.jpg;0;0;;10000;;;;;;;;;1;26;Germany/Deutschland;5;Bachelor
27/11/2023;14:11:08;103;119;6;118;2PVIP_113_whale.jpg;0;0;;10000;;;;;;;;;1;26;Germany/Deutschland;5;Bachelor
27/11/2023;14:11:08;103;120;6;97;2PVIP_092_jet1_gauss5.jpg;0;0;;10000;;;;;;;;;1;26;Germany/Deutschland;5;Bachelor
27/11/2023;14:11:08;103;121;6;18;1PVIP_018_dog3_gauss2.5.jpg;0;0;;10000;;;;;;;;;1;26;Germany/Deutschland;5;Bachelor
27/11/2023;14:11:08;103;122;6;17;1PVIP_017_deer2_gauss1.jpg;0;0;;10000;;;;;;;;;1;26;Germany/Deutschland;5;Bachelor
27/11/2023;14:11:08;103;123;6;110;2PVIP_105_puppy1_gauss3.jpg;0;0;;10000;;;;;;;;;1;26;Germany/Deutschland;5;Bachelor
27/11/2023;14:11:08;103;124;6;40;1PVIP_040_robbe_gauss3.jpg;1;3;2;1539;Schnurrhaare einer K;6114;3;3911;4;976;4;3452;1;26;Germany/Deutschland;5;Bachelor
27/11/2023;14:11:08;103;125;6;104;2PVIP_099_metro_gauss2.jpg;0;0;;10000;;;;;;;;;1;26;Germany/Deutschland;5;Bachelor
27/11/2023;14:11:08;103;126;6;79;2PVIP_073_coffee_gauss5.jpg;0;0;;10000;;;;;;;;;1;26;Germany/Deutschland;5;Bachelor
27/11/2023;14:25:49;104;3;7;1;0PVIP_001_tank2bw_filt1_gauss3.jpg;0;0;;10000;;;;;;;;;1;22;Germany;5;Abitur
27/11/2023;14:25:49;104;5;7;1;0PVIP_002_pineapplebw_filt1_gauss3.jpg;0;3;0;10000;Pflanze;6605;2;2123;2;12205;2;2630;1;22;Germany;5;Abitur
27/11/2023;14:25:49;104;7;6;54;1PVIP_054_toilet_gauss5.jpg;1;0;2;7486;Blechdose;16768;3;3367;2;4342;3;2685;1;22;Germany;5;Abitur
27/11/2023;14:25:49;104;8;6;120;2PVIP_115_woman.jpg;0;0;;10000;;;;;;;;;1;22;Germany;5;Abitur
27/11/2023;14:25:49;104;9;6;78;2PVIP_072_cigarette_gauss3.jpg;0;0;;10000;;;;;;;;;1;22;Germany;5;Abitur
27/11/2023;14:25:49;104;10;6;83;2PVIP_077_cow3.jpg;0;0;;10000;;;;;;;;;1;22;Germany;5;Abitur
27/11/2023;14:25:49;104;11;6;105;2PVIP_100_mirror_gauss4.jpg;0;0;;10000;;;;;;;;;1;22;Germany;5;Abitur
27/11/2023;14:25:49;104;12;6;116;2PVIP_111_snake3.jpg;0;0;;10000;;;;;;;;;1;22;Germany;5;Abitur
27/11/2023;14:25:49;104;13;6;60;1PVIP_120_toaster.jpg;1;1;;2089;Toaster;3400;4;1918;5;2526;5;1948;1;22;Germany;5;Abitur
27/11/2023;14:25:49;104;14;6;89;2PVIP_084_fish1_gauss3.jpg;0;0;;10000;;;;;;;;;1;22;Germany;5;Abitur
27/11/2023;14:25:49;104;15;6;41;1PVIP_041_rose.jpg;1;1;;1235;Rose;3261;4;4812;4;2241;4;1680;1;22;Germany;5;Abitur
27/11/2023;14:25:49;104;16;6;62;2PVIP_056_baby3_gauss5.jpg;0;0;;10000;;;;;;;;;1;22;Germany;5;Abitur
27/11/2023;14:25:49;104;17;6;82;2PVIP_076_computer.new_gauss5.jpg;1;1;;4159;Laptop;2916;3;2542;4;2806;3;1340;1;22;Germany;5;Abitur
27/11/2023;14:25:49;104;18;6;55;1PVIP_082_erdbeere_gauss1.jpg;1;1;;1581;Erdbeere;3114;4;834;5;1696;4;1461;1;22;Germany;5;Abitur
27/11/2023;14:25:49;104;19;6;93;2PVIP_088_gun.jpg;1;1;;4973;Gewehr;3157;3;1912;3;3708;2;1426;1;22;Germany;5;Abitur
27/11/2023;14:25:49;104;20;6;81;2PVIP_075_chair3_gauss5.jpg;1;0;;5894;Stuhl;2841;3;1416;3;1335;3;1501;1;22;Germany;5;Abitur
27/11/2023;14:25:49;104;21;6;48;1PVIP_048_tomb_gauss3.jpg;0;0;;10000;;;;;;;;;1;22;Germany;5;Abitur
27/11/2023;14:25:49;104;22;6;19;1PVIP_019_elephant1_gauss2.jpg;1;1;;9491;Elefant?;4105;3;2744;2;560;2;968;1;22;Germany;5;Abitur
27/11/2023;14:25:49;104;23;6;25;1PVIP_025_hare.new_gauss2.jpg;1;1;;1682;Kaninchen;3226;5;2555;5;2019;5;2038;1;22;Germany;5;Abitur
27/11/2023;14:25:49;104;24;6;52;1PVIP_052_wolf2.jpg;1;2;;5751;Fuchs;2736;4;1995;4;2417;4;2604;1;22;Germany;5;Abitur
27/11/2023;14:25:49;104;25;6;35;1PVIP_035_orchid_gauss1.jpg;1;1;;1881;Orchidee;2961;5;1073;5;500;5;1485;1;22;Germany;5;Abitur
27/11/2023;14:25:49;104;26;6;42;1PVIP_042_sheep1_gauss2.5.jpg;1;1;;2217;Schaf;2390;4;1084;4;1840;4;1823;1;22;Germany;5;Abitur
27/11/2023;14:25:49;104;27;6;9;1PVIP_009_railroad_gauss5.jpg;1;1;;2245;Zug/ICE;4816;4;1371;4;1083;4;954;1;22;Germany;5;Abitur
27/11/2023;14:25:49;104;28;6;45;1PVIP_045_spider.new_gauss1.jpg;0;0;;10000;;;;;;;;;1;22;Germany;5;Abitur
27/11/2023;14:25:49;104;29;6;1;1PVIP_001_accordi2_gauss4.jpg;1;1;;4161;Akkordeon;3382;3;1670;5;1466;3;2199;1;22;Germany;5;Abitur
27/11/2023;14:25:49;104;30;6;73;2PVIP_067_carafe2.jpg;0;0;;10000;;;;;;;;;1;22;Germany;5;Abitur
27/11/2023;14:25:49;104;31;6;72;2PVIP_066_burro1_gauss3.jpg;0;0;;10000;;;;;;;;;1;22;Germany;5;Abitur
27/11/2023;14:25:49;104;32;6;17;1PVIP_017_deer2_gauss1.jpg;1;2;;1494;Reh;2036;4;1461;5;338;4;1481;1;22;Germany;5;Abitur
27/11/2023;14:25:49;104;33;6;68;2PVIP_062_book2_gauss3.5.jpg;1;1;;3130;Buch;1810;3;2001;5;919;3;1628;1;22;Germany;5;Abitur
27/11/2023;14:25:49;104;34;6;110;2PVIP_105_puppy1_gauss3.jpg;0;0;;10000;;;;;;;;;1;22;Germany;5;Abitur
27/11/2023;14:25:49;104;35;6;80;2PVIP_074_computer.jpg;0;0;;10000;;;;;;;;;1;22;Germany;5;Abitur
27/11/2023;14:25:49;104;36;6;27;1PVIP_027_squirrel.new_gauss4.jpg;1;1;;2883;Eichhýrnchen;4364;5;528;5;1763;4;1301;1;22;Germany;5;Abitur
27/11/2023;14:25:49;104;37;6;56;1PVIP_116_otter.jpg;1;2;;6610;Biber?;2667;3;1690;5;2029;2;2029;1;22;Germany;5;Abitur
27/11/2023;14:25:49;104;38;6;38;1PVIP_038_python2_gauss2.jpg;0;0;;10000;;;;;;;;;1;22;Germany;5;Abitur
27/11/2023;14:25:49;104;39;6;36;1PVIP_036_pen2.jpg;0;0;;10000;;;;;;;;;1;22;Germany;5;Abitur
27/11/2023;14:25:49;104;40;6;113;2PVIP_108_shark1_gauss3.jpg;1;1;;6888;Hai;2165;5;1231;5;1397;4;1368;1;22;Germany;5;Abitur
27/11/2023;14:25:49;104;41;6;108;2PVIP_103_panda_gauss6.jpg;0;0;;10000;;;;;;;;;1;22;Germany;5;Abitur
27/11/2023;14:25:49;104;42;6;103;2PVIP_098_lion2.jpg;0;0;;10000;;;;;;;;;1;22;Germany;5;Abitur
27/11/2023;14:25:49;104;43;6;85;2PVIP_079_drumset_gauss5.jpg;0;0;;10000;;;;;;;;;1;22;Germany;5;Abitur
27/11/2023;14:25:49;104;44;6;118;2PVIP_113_whale.jpg;0;0;;10000;;;;;;;;;1;22;Germany;5;Abitur
27/11/2023;14:25:49;104;45;6;18;1PVIP_018_dog3_gauss2.5.jpg;1;1;;2705;Hund;2610;3;870;4;651;3;3034;1;22;Germany;5;Abitur
27/11/2023;14:25:49;104;46;6;12;1PVIP_012_cabin2.jpg;1;2;;3390;Haus;2323;4;1511;5;1769;4;1708;1;22;Germany;5;Abitur
27/11/2023;14:25:49;104;47;6;58;1PVIP_118_phone_gauss5.jpg;0;0;;10000;;;;;;;;;1;22;Germany;5;Abitur
27/11/2023;14:25:49;104;48;6;11;1PVIP_011_butterfly2.jpg;1;0;0;3601;Maus;2557;4;1891;4;1406;3;1455;1;22;Germany;5;Abitur
27/11/2023;14:25:49;104;49;6;112;2PVIP_107_scorpion_gauss8.jpg;0;0;;10000;;;;;;;;;1;22;Germany;5;Abitur
27/11/2023;14:25:49;104;50;6;106;2PVIP_101_orange.jpg;1;0;1;8354;Banane (geschnitten);11136;3;4711;5;1359;2;2902;1;22;Germany;5;Abitur
27/11/2023;14:25:49;104;51;6;14;1PVIP_014_chipmunk_gauss2.jpg;1;0;0;2530;Kaninchen/Hase;5933;4;2445;4;1537;4;5259;1;22;Germany;5;Abitur
27/11/2023;14:25:49;104;52;6;28;1PVIP_028_knife.new_gauss1.5.jpg;0;0;;10000;;;;;;;;;1;22;Germany;5;Abitur
27/11/2023;14:25:49;104;53;6;16;1PVIP_016_crone_gauss1.5.jpg;0;0;;10000;;;;;;;;;1;22;Germany;5;Abitur
27/11/2023;14:25:49;104;54;6;24;1PVIP_024_hamster2_gauss1.5.jpg;1;2;;2252;Maus;1854;4;1320;5;1074;5;984;1;22;Germany;5;Abitur
27/11/2023;14:25:49;104;55;6;114;2PVIP_109_shoes2_gauss4.jpg;0;0;;10000;;;;;;;;;1;22;Germany;5;Abitur
27/11/2023;14:25:49;104;56;6;31;1PVIP_031_lizard_gauss2.jpg;1;2;;1616;Krokodil;3583;4;1198;4;1175;5;1399;1;22;Germany;5;Abitur
27/11/2023;14:25:49;104;57;6;46;1PVIP_046_tiger_gauss2.5.jpg;1;1;;1542;Tiger;3030;4;1878;4;1282;4;1599;1;22;Germany;5;Abitur
27/11/2023;14:25:49;104;58;6;107;2PVIP_102_owl_gauss4.jpg;1;1;;4579;Eule;2194;3;1698;4;468;2;593;1;22;Germany;5;Abitur
27/11/2023;14:25:49;104;59;6;99;2PVIP_094_kettle2_gauss3.jpg;0;0;;10000;;;;;;;;;1;22;Germany;5;Abitur
27/11/2023;14:25:49;104;60;6;26;1PVIP_026_hedgehog.new_gauss2.jpg;1;1;;1254;Igel;2545;4;1442;5;383;5;1194;1;22;Germany;5;Abitur
27/11/2023;14:25:49;104;61;6;4;1PVIP_004_beetle1_gauss2.5.jpg;0;0;;10000;;;;;;;;;1;22;Germany;5;Abitur
27/11/2023;14:25:49;104;62;6;5;1PVIP_005_bell_gauss1.5.jpg;1;0;1;2630;Lampe;2371;4;1368;5;880;4;1259;1;22;Germany;5;Abitur
27/11/2023;14:25:49;104;63;6;97;2PVIP_092_jet1_gauss5.jpg;0;0;;10000;;;;;;;;;1;22;Germany;5;Abitur
27/11/2023;14:25:49;104;64;6;3;1PVIP_003_beehive_gauss2.jpg;0;0;;10000;;;;;;;;;1;22;Germany;5;Abitur
27/11/2023;14:25:49;104;65;6;88;2PVIP_083_eye.new_gauss2.jpg;0;0;;10000;;;;;;;;;1;22;Germany;5;Abitur
27/11/2023;14:25:49;104;66;6;76;2PVIP_070_cauliflower.new_gauss3.jpg;0;0;;10000;;;;;;;;;1;22;Germany;5;Abitur
27/11/2023;14:25:49;104;67;6;59;1PVIP_119_sewingmachine.jpg;1;1;;5079;Nýhmaschine;3925;3;1697;4;1364;2;1344;1;22;Germany;5;Abitur
27/11/2023;14:25:49;104;68;6;40;1PVIP_040_robbe_gauss3.jpg;1;3;2;5773;Raubkatze;5325;3;1999;3;1813;3;1842;1;22;Germany;5;Abitur
27/11/2023;14:25:49;104;69;6;70;2PVIP_064_bridge_gauss2.5.jpg;0;0;;10000;;;;;;;;;1;22;Germany;5;Abitur
27/11/2023;14:25:49;104;70;6;6;1PVIP_006_bike.jpg;1;1;;2417;Fahrrad;2615;4;1443;4;4337;5;1279;1;22;Germany;5;Abitur
27/11/2023;14:25:49;104;71;6;51;1PVIP_051_wheat_gauss1.5.jpg;1;1;;1622;Getreide;6157;4;1129;5;756;4;1244;1;22;Germany;5;Abitur
27/11/2023;14:25:49;104;72;6;63;2PVIP_057_bag.jpg;0;0;;10000;;;;;;;;;1;22;Germany;5;Abitur
27/11/2023;14:25:49;104;73;6;22;1PVIP_022_frog2_gauss4.jpg;1;1;;8313;Frosch;2728;3;1412;2;1843;3;2214;1;22;Germany;5;Abitur
27/11/2023;14:25:49;104;74;6;101;2PVIP_096_lamb_gauss3.jpg;1;1;;2730;Lamm;1584;4;1010;4;801;4;2178;1;22;Germany;5;Abitur
27/11/2023;14:25:49;104;75;6;102;2PVIP_097_leopard7.jpg;0;0;;10000;;;;;;;;;1;22;Germany;5;Abitur
27/11/2023;14:25:49;104;76;6;90;2PVIP_085_frog5.jpg;1;1;;2998;Frosch;2412;3;2451;4;311;3;1404;1;22;Germany;5;Abitur
27/11/2023;14:25:49;104;77;6;71;2PVIP_065_bulldog5_gauss3.jpg;1;1;;1786;Bulldogge;3305;5;2350;5;1094;5;1065;1;22;Germany;5;Abitur
27/11/2023;14:25:49;104;78;6;57;1PVIP_117_pepper.jpg;1;1;;8253;Paprika;4552;3;1182;4;1342;2;1350;1;22;Germany;5;Abitur
27/11/2023;14:25:49;104;79;6;47;1PVIP_047_toad2_gauss1.jpg;1;1;;6616;Krýte;2481;3;1562;3;5338;3;1194;1;22;Germany;5;Abitur
27/11/2023;14:25:49;104;80;6;50;1PVIP_050_typewriter_gauss5.5.jpg;0;0;;10000;;;;;;;;;1;22;Germany;5;Abitur
27/11/2023;14:25:49;104;81;6;98;2PVIP_093_kamel_gauss1.5.jpg;0;0;;10000;;;;;;;;;1;22;Germany;5;Abitur
27/11/2023;14:25:49;104;82;6;96;2PVIP_091_horn.new_gauss3.jpg;0;0;;10000;;;;;;;;;1;22;Germany;5;Abitur
27/11/2023;14:25:49;104;83;6;8;1PVIP_008_boat2.jpg;1;2;;2323;Schiff;3679;4;1575;4;1583;5;3836;1;22;Germany;5;Abitur
27/11/2023;14:25:49;104;84;6;91;2PVIP_086_girl.jpg;0;0;;10000;;;;;;;;;1;22;Germany;5;Abitur
27/11/2023;14:25:49;104;85;6;39;1PVIP_039_rat_gauss1.jpg;1;3;;5310;Nagetier;6815;3;2389;3;6395;2;3166;1;22;Germany;5;Abitur
27/11/2023;14:25:49;104;86;6;79;2PVIP_073_coffee_gauss5.jpg;0;0;;10000;;;;;;;;;1;22;Germany;5;Abitur
27/11/2023;14:25:49;104;87;6;34;1PVIP_034_octopus.new_gauss1.5.jpg;0;0;;10000;;;;;;;;;1;22;Germany;5;Abitur
27/11/2023;14:25:49;104;88;6;86;2PVIP_080_ear_gauss2.jpg;0;0;;10000;;;;;;;;;1;22;Germany;5;Abitur
27/11/2023;14:25:49;104;89;6;69;2PVIP_063_brick_gauss5.jpg;0;0;;10000;;;;;;;;;1;22;Germany;5;Abitur
27/11/2023;14:25:49;104;90;6;75;2PVIP_069_cat2.jpg;0;0;;10000;;;;;;;;;1;22;Germany;5;Abitur
27/11/2023;14:25:49;104;91;6;29;1PVIP_029_leopard3.jpg;1;1;;8105;Leopard;2783;3;1858;3;1774;3;903;1;22;Germany;5;Abitur
27/11/2023;14:25:49;104;92;6;111;2PVIP_106_saxophone1_gauss3.jpg;1;1;;9221;Saxophon;3958;3;4905;3;4617;2;1477;1;22;Germany;5;Abitur
27/11/2023;14:25:49;104;93;6;92;2PVIP_087_goat_gauss5.jpg;1;1;;3157;Steinbock;3280;3;1480;4;1301;3;1468;1;22;Germany;5;Abitur
27/11/2023;14:25:49;104;94;6;117;2PVIP_112_watch.jpg;0;0;;10000;;;;;;;;;1;22;Germany;5;Abitur
27/11/2023;14:25:49;104;95;6;43;1PVIP_043_snail.new_gauss2.5.jpg;1;0;2;4712;Otter;4557;4;1242;4;1607;2;744;1;22;Germany;5;Abitur
27/11/2023;14:25:49;104;96;6;15;1PVIP_015_crocodile1_gauss2.5.jpg;0;0;;10000;;;;;;;;;1;22;Germany;5;Abitur
27/11/2023;14:25:49;104;97;6;13;1PVIP_013_cat.new_gauss3.jpg;0;0;;10000;;;;;;;;;1;22;Germany;5;Abitur
27/11/2023;14:25:49;104;98;6;95;2PVIP_090_hawk_gauss4.jpg;0;0;;10000;;;;;;;;;1;22;Germany;5;Abitur
27/11/2023;14:25:49;104;99;6;84;2PVIP_078_crocodile2_gauss2.jpg;1;1;;1330;Krokodil;3528;4;1392;5;599;5;3644;1;22;Germany;5;Abitur
27/11/2023;14:25:49;104;100;6;32;1PVIP_032_mountain_gauss3.5.jpg;1;3;1;8457;Vulkan;3131;3;1308;4;902;3;888;1;22;Germany;5;Abitur
27/11/2023;14:25:49;104;101;6;20;1PVIP_020_fork.jpg;1;0;0;4259;Pflanze;19965;3;2360;4;2624;3;717;1;22;Germany;5;Abitur
27/11/2023;14:25:49;104;102;6;104;2PVIP_099_metro_gauss2.jpg;1;1;;2127;S-Bahn;3140;4;928;4;779;5;968;1;22;Germany;5;Abitur
27/11/2023;14:25:49;104;103;6;109;2PVIP_104_piano.jpg;1;1;;2757;Klavier;3174;4;2851;4;2431;4;1204;1;22;Germany;5;Abitur
27/11/2023;14:25:49;104;104;6;66;2PVIP_060_bee2.jpg;1;1;;3117;Biene;2461;4;2721;5;530;5;3270;1;22;Germany;5;Abitur
27/11/2023;14:25:49;104;105;6;61;2PVIP_055_affe_gauss4.jpg;0;0;;10000;;;;;;;;;1;22;Germany;5;Abitur
27/11/2023;14:25:49;104;106;6;44;1PVIP_044_snake_gauss1.5.jpg;0;0;;10000;;;;;;;;;1;22;Germany;5;Abitur
27/11/2023;14:25:49;104;107;6;94;2PVIP_089_hammer_gauss2.jpg;0;0;;10000;;;;;;;;;1;22;Germany;5;Abitur
27/11/2023;14:25:49;104;108;6;87;2PVIP_081_elephant2_gauss2.jpg;0;0;;10000;;;;;;;;;1;22;Germany;5;Abitur
27/11/2023;14:25:49;104;109;6;100;2PVIP_095_knob_gauss1.jpg;0;0;;10000;;;;;;;;;1;22;Germany;5;Abitur
27/11/2023;14:25:49;104;110;6;21;1PVIP_021_fox1_gauss1.jpg;1;1;;5375;Fuchs;2417;3;1166;4;1559;3;1124;1;22;Germany;5;Abitur
27/11/2023;14:25:49;104;111;6;64;2PVIP_058_bagpipe_gauss6.jpg;0;0;;10000;;;;;;;;;1;22;Germany;5;Abitur
27/11/2023;14:25:49;104;112;6;49;1PVIP_049_turtle_gauss4.jpg;1;1;;1683;Schildkrýte;5629;5;780;5;437;5;1647;1;22;Germany;5;Abitur
27/11/2023;14:25:49;104;113;6;67;2PVIP_061_boat_gauss3.jpg;1;0;0;2478;Fischkutter;3582;4;1192;5;855;4;617;1;22;Germany;5;Abitur
27/11/2023;14:25:49;104;114;6;77;2PVIP_071_chair1_gauss3.jpg;0;0;;10000;;;;;;;;;1;22;Germany;5;Abitur
27/11/2023;14:25:49;104;115;6;30;1PVIP_030_lion1_gauss2.5.jpg;1;1;;3610;Lýwe;2474;4;345;3;1043;5;1303;1;22;Germany;5;Abitur
27/11/2023;14:25:49;104;116;6;53;1PVIP_053_watch2.jpg;0;0;;10000;;;;;;;;;1;22;Germany;5;Abitur
27/11/2023;14:25:49;104;117;6;37;1PVIP_037_pfau_gauss3.jpg;1;1;;3283;Pfau;1610;4;1223;3;301;5;749;1;22;Germany;5;Abitur
27/11/2023;14:25:49;104;118;6;65;2PVIP_059_bear.new_gauss4.jpg;1;1;;2025;Býr;1651;4;1268;4;1120;4;9287;1;22;Germany;5;Abitur
27/11/2023;14:25:49;104;119;6;10;1PVIP_010_brain_gauss3.jpg;1;1;;2313;Gehirn;2417;4;2571;4;1058;4;595;1;22;Germany;5;Abitur
27/11/2023;14:25:49;104;120;6;74;2PVIP_068_carafe3.jpg;1;2;;5543;Kaffeekanne;3370;3;1812;3;434;3;629;1;22;Germany;5;Abitur
27/11/2023;14:25:49;104;121;6;33;1PVIP_033_nashorn_gauss2.jpg;0;0;;10000;;;;;;;;;1;22;Germany;5;Abitur
27/11/2023;14:25:49;104;122;6;7;1PVIP_007_bird3.jpg;1;1;;6629;Vogel;2554;4;1398;5;909;4;4367;1;22;Germany;5;Abitur
27/11/2023;14:25:49;104;123;6;119;2PVIP_114_wolf3.jpg;0;0;;10000;;;;;;;;;1;22;Germany;5;Abitur
27/11/2023;14:25:49;104;124;6;23;1PVIP_023_geese_gauss3.jpg;0;0;;10000;;;;;;;;;1;22;Germany;5;Abitur
27/11/2023;14:25:49;104;125;6;115;2PVIP_110_ski.new_gauss1.jpg;0;0;;10000;;;;;;;;;1;22;Germany;5;Abitur
27/11/2023;14:25:49;104;126;6;2;1PVIP_002_arrow_gauss2.jpg;1;0;0;3654;Vogel;2193;4;2843;3;367;4;2129;1;22;Germany;5;Abitur
27/11/2023;16:02:59;105;3;7;1;0PVIP_001_tank2bw_filt1_gauss3.jpg;0;0;;10000;;;;;;;;;0;29;China;5;Bachelor
27/11/2023;16:02:59;105;5;7;1;0PVIP_002_pineapplebw_filt1_gauss3.jpg;0;3;0;10000;Grasstrýucher;7088;3;4211;4;2960;2;6066;0;29;China;5;Bachelor
27/11/2023;16:02:59;105;7;6;5;1PVIP_005_bell_gauss1.5.jpg;0;0;;10000;;;;;;;;;0;29;China;5;Bachelor
27/11/2023;16:02:59;105;8;6;12;1PVIP_012_cabin2.jpg;0;0;;10000;;;;;;;;;0;29;China;5;Bachelor
27/11/2023;16:02:59;105;9;6;24;1PVIP_024_hamster2_gauss1.5.jpg;1;0;0;7806;Panda;4189;3;1289;2;3372;2;8408;0;29;China;5;Bachelor
27/11/2023;16:02:59;105;10;6;40;1PVIP_040_robbe_gauss3.jpg;1;2;;1314;Lýwengesicht;13111;3;4503;3;1816;4;11925;0;29;China;5;Bachelor
27/11/2023;16:02:59;105;11;6;47;1PVIP_047_toad2_gauss1.jpg;0;0;;10000;;;;;;;;;0;29;China;5;Bachelor
27/11/2023;16:02:59;105;12;6;23;1PVIP_023_geese_gauss3.jpg;0;0;;10000;;;;;;;;;0;29;China;5;Bachelor
27/11/2023;16:02:59;105;13;6;76;2PVIP_070_cauliflower.new_gauss3.jpg;0;0;;10000;;;;;;;;;0;29;China;5;Bachelor
27/11/2023;16:02:59;105;14;6;32;1PVIP_032_mountain_gauss3.5.jpg;1;1;;6752;Gebirge;53250;2;1529;3;1459;2;1652;0;29;China;5;Bachelor
27/11/2023;16:02:59;105;15;6;97;2PVIP_092_jet1_gauss5.jpg;1;3;;4710;Flugzeug;13833;4;971;5;1867;4;1454;0;29;China;5;Bachelor
27/11/2023;16:02:59;105;16;6;61;2PVIP_055_affe_gauss4.jpg;0;0;;10000;;;;;;;;;0;29;China;5;Bachelor
27/11/2023;16:02:59;105;17;6;22;1PVIP_022_frog2_gauss4.jpg;0;0;;10000;;;;;;;;;0;29;China;5;Bachelor
27/11/2023;16:02:59;105;18;6;54;1PVIP_054_toilet_gauss5.jpg;0;0;;10000;;;;;;;;;0;29;China;5;Bachelor
27/11/2023;16:02:59;105;19;6;113;2PVIP_108_shark1_gauss3.jpg;0;0;;10000;;;;;;;;;0;29;China;5;Bachelor
27/11/2023;16:02:59;105;20;6;104;2PVIP_099_metro_gauss2.jpg;1;0;;5993;Lager;1886;3;1402;2;1273;3;1420;0;29;China;5;Bachelor
27/11/2023;16:02:59;105;21;6;46;1PVIP_046_tiger_gauss2.5.jpg;1;2;;6337;Puma;2829;5;858;5;1071;5;1703;0;29;China;5;Bachelor
27/11/2023;16:02:59;105;22;6;91;2PVIP_086_girl.jpg;0;0;;10000;;;;;;;;;0;29;China;5;Bachelor
27/11/2023;16:02:59;105;23;6;73;2PVIP_067_carafe2.jpg;1;0;;8367;Geist;4899;3;1227;3;1361;4;1154;0;29;China;5;Bachelor
27/11/2023;16:02:59;105;24;6;68;2PVIP_062_book2_gauss3.5.jpg;0;0;;10000;;;;;;;;;0;29;China;5;Bachelor
27/11/2023;16:02:59;105;25;6;53;1PVIP_053_watch2.jpg;0;0;;10000;;;;;;;;;0;29;China;5;Bachelor
27/11/2023;16:02:59;105;26;6;120;2PVIP_115_woman.jpg;0;0;;10000;;;;;;;;;0;29;China;5;Bachelor
27/11/2023;16:02:59;105;27;6;2;1PVIP_002_arrow_gauss2.jpg;0;0;;10000;;;;;;;;;0;29;China;5;Bachelor
27/11/2023;16:02:59;105;28;6;100;2PVIP_095_knob_gauss1.jpg;1;0;;8816;Gebýude;3358;2;763;2;772;3;1104;0;29;China;5;Bachelor
27/11/2023;16:02:59;105;29;6;38;1PVIP_038_python2_gauss2.jpg;0;0;;10000;;;;;;;;;0;29;China;5;Bachelor
27/11/2023;16:02:59;105;30;6;88;2PVIP_083_eye.new_gauss2.jpg;0;0;;10000;;;;;;;;;0;29;China;5;Bachelor
27/11/2023;16:02:59;105;31;6;80;2PVIP_074_computer.jpg;1;0;;5983;Karosserie;3139;3;3863;3;994;5;3252;0;29;China;5;Bachelor
27/11/2023;16:02:59;105;32;6;49;1PVIP_049_turtle_gauss4.jpg;0;0;;10000;;;;;;;;;0;29;China;5;Bachelor
27/11/2023;16:02:59;105;33;6;51;1PVIP_051_wheat_gauss1.5.jpg;0;0;;10000;;;;;;;;;0;29;China;5;Bachelor
27/11/2023;16:02:59;105;34;6;3;1PVIP_003_beehive_gauss2.jpg;0;0;;10000;;;;;;;;;0;29;China;5;Bachelor
27/11/2023;16:02:59;105;35;6;37;1PVIP_037_pfau_gauss3.jpg;0;0;;10000;;;;;;;;;0;29;China;5;Bachelor
27/11/2023;16:02:59;105;36;6;105;2PVIP_100_mirror_gauss4.jpg;1;1;;6503;Spiegel;2845;3;1173;2;17485;2;1414;0;29;China;5;Bachelor
27/11/2023;16:02:59;105;37;6;112;2PVIP_107_scorpion_gauss8.jpg;0;0;;10000;;;;;;;;;0;29;China;5;Bachelor
27/11/2023;16:02:59;105;38;6;83;2PVIP_077_cow3.jpg;1;0;;4622;Steppe;2020;2;676;2;561;2;730;0;29;China;5;Bachelor
27/11/2023;16:02:59;105;39;6;21;1PVIP_021_fox1_gauss1.jpg;1;0;;4161;Urwald;2640;4;848;5;1126;5;1376;0;29;China;5;Bachelor
27/11/2023;16:02:59;105;40;6;115;2PVIP_110_ski.new_gauss1.jpg;1;1;;3222;Skifahrer;14319;4;1174;5;13901;4;1914;0;29;China;5;Bachelor
27/11/2023;16:02:59;105;41;6;33;1PVIP_033_nashorn_gauss2.jpg;0;0;;10000;;;;;;;;;0;29;China;5;Bachelor
27/11/2023;16:02:59;105;42;6;43;1PVIP_043_snail.new_gauss2.5.jpg;0;0;;10000;;;;;;;;;0;29;China;5;Bachelor
27/11/2023;16:02:59;105;43;6;65;2PVIP_059_bear.new_gauss4.jpg;0;0;;10000;;;;;;;;;0;29;China;5;Bachelor
27/11/2023;16:02:59;105;44;6;71;2PVIP_065_bulldog5_gauss3.jpg;1;0;;5526;Katze;8647;5;1497;4;1332;4;1501;0;29;China;5;Bachelor
27/11/2023;16:02:59;105;45;6;44;1PVIP_044_snake_gauss1.5.jpg;0;0;;10000;;;;;;;;;0;29;China;5;Bachelor
27/11/2023;16:02:59;105;46;6;78;2PVIP_072_cigarette_gauss3.jpg;0;0;;10000;;;;;;;;;0;29;China;5;Bachelor
27/11/2023;16:02:59;105;47;6;31;1PVIP_031_lizard_gauss2.jpg;0;0;;10000;;;;;;;;;0;29;China;5;Bachelor
27/11/2023;16:02:59;105;48;6;89;2PVIP_084_fish1_gauss3.jpg;0;0;;10000;;;;;;;;;0;29;China;5;Bachelor
27/11/2023;16:02:59;105;49;6;117;2PVIP_112_watch.jpg;0;0;;10000;;;;;;;;;0;29;China;5;Bachelor
27/11/2023;16:02:59;105;50;6;92;2PVIP_087_goat_gauss5.jpg;0;0;;10000;;;;;;;;;0;29;China;5;Bachelor
27/11/2023;16:02:59;105;51;6;20;1PVIP_020_fork.jpg;1;0;;9476;Taube;29584;3;1004;3;891;4;1322;0;29;China;5;Bachelor
27/11/2023;16:02:59;105;52;6;62;2PVIP_056_baby3_gauss5.jpg;0;0;;10000;;;;;;;;;0;29;China;5;Bachelor
27/11/2023;16:02:59;105;53;6;36;1PVIP_036_pen2.jpg;1;0;;6702;Schiffe;1693;4;743;5;1137;4;1333;0;29;China;5;Bachelor
27/11/2023;16:02:59;105;54;6;107;2PVIP_102_owl_gauss4.jpg;0;0;;10000;;;;;;;;;0;29;China;5;Bachelor
27/11/2023;16:02:59;105;55;6;90;2PVIP_085_frog5.jpg;1;0;;7517;Pfau;2166;3;874;4;1998;3;1587;0;29;China;5;Bachelor
27/11/2023;16:02:59;105;56;6;72;2PVIP_066_burro1_gauss3.jpg;0;0;;10000;;;;;;;;;0;29;China;5;Bachelor
27/11/2023;16:02:59;105;57;6;111;2PVIP_106_saxophone1_gauss3.jpg;0;0;;10000;;;;;;;;;0;29;China;5;Bachelor
27/11/2023;16:02:59;105;58;6;70;2PVIP_064_bridge_gauss2.5.jpg;0;0;;10000;;;;;;;;;0;29;China;5;Bachelor
27/11/2023;16:02:59;105;59;6;66;2PVIP_060_bee2.jpg;1;2;;7373;Wespe;1802;4;929;4;1251;5;1176;0;29;China;5;Bachelor
27/11/2023;16:02:59;105;60;6;67;2PVIP_061_boat_gauss3.jpg;1;0;;4672;Frachter;1934;2;711;3;754;3;1434;0;29;China;5;Bachelor
27/11/2023;16:02:59;105;61;6;114;2PVIP_109_shoes2_gauss4.jpg;0;0;;10000;;;;;;;;;0;29;China;5;Bachelor
27/11/2023;16:02:59;105;62;6;50;1PVIP_050_typewriter_gauss5.5.jpg;0;0;;10000;;;;;;;;;0;29;China;5;Bachelor
27/11/2023;16:02:59;105;63;6;87;2PVIP_081_elephant2_gauss2.jpg;0;0;;10000;;;;;;;;;0;29;China;5;Bachelor
27/11/2023;16:02:59;105;64;6;101;2PVIP_096_lamb_gauss3.jpg;0;0;;10000;;;;;;;;;0;29;China;5;Bachelor
27/11/2023;16:02:59;105;65;6;4;1PVIP_004_beetle1_gauss2.5.jpg;0;0;;10000;;;;;;;;;0;29;China;5;Bachelor
27/11/2023;16:02:59;105;66;6;86;2PVIP_080_ear_gauss2.jpg;0;0;;10000;;;;;;;;;0;29;China;5;Bachelor
27/11/2023;16:02:59;105;67;6;110;2PVIP_105_puppy1_gauss3.jpg;0;0;;10000;;;;;;;;;0;29;China;5;Bachelor
27/11/2023;16:02:59;105;68;6;11;1PVIP_011_butterfly2.jpg;0;0;;10000;;;;;;;;;0;29;China;5;Bachelor
27/11/2023;16:02:59;105;69;6;19;1PVIP_019_elephant1_gauss2.jpg;0;0;;10000;;;;;;;;;0;29;China;5;Bachelor
27/11/2023;16:02:59;105;70;6;1;1PVIP_001_accordi2_gauss4.jpg;1;1;;5595;Akkordion;2715;4;712;5;835;4;1535;0;29;China;5;Bachelor
27/11/2023;16:02:59;105;71;6;52;1PVIP_052_wolf2.jpg;0;0;;10000;;;;;;;;;0;29;China;5;Bachelor
27/11/2023;16:02:59;105;72;6;15;1PVIP_015_crocodile1_gauss2.5.jpg;0;0;;10000;;;;;;;;;0;29;China;5;Bachelor
27/11/2023;16:02:59;105;73;6;56;1PVIP_116_otter.jpg;1;0;;8118;Býr;2961;3;828;4;1059;3;1155;0;29;China;5;Bachelor
27/11/2023;16:02:59;105;74;6;103;2PVIP_098_lion2.jpg;0;0;;10000;;;;;;;;;0;29;China;5;Bachelor
27/11/2023;16:02:59;105;75;6;7;1PVIP_007_bird3.jpg;1;2;;6813;Spatz;1985;3;660;4;642;4;881;0;29;China;5;Bachelor
27/11/2023;16:02:59;105;76;6;42;1PVIP_042_sheep1_gauss2.5.jpg;0;0;;10000;;;;;;;;;0;29;China;5;Bachelor
27/11/2023;16:02:59;105;77;6;39;1PVIP_039_rat_gauss1.jpg;0;0;;10000;;;;;;;;;0;29;China;5;Bachelor
27/11/2023;16:02:59;105;78;6;99;2PVIP_094_kettle2_gauss3.jpg;0;0;;10000;;;;;;;;;0;29;China;5;Bachelor
27/11/2023;16:02:59;105;79;6;26;1PVIP_026_hedgehog.new_gauss2.jpg;0;0;;10000;;;;;;;;;0;29;China;5;Bachelor
27/11/2023;16:02:59;105;80;6;74;2PVIP_068_carafe3.jpg;1;1;;6005;Kanne;2115;5;800;5;343;5;1192;0;29;China;5;Bachelor
27/11/2023;16:02:59;105;81;6;116;2PVIP_111_snake3.jpg;0;0;;10000;;;;;;;;;0;29;China;5;Bachelor
27/11/2023;16:02:59;105;82;6;84;2PVIP_078_crocodile2_gauss2.jpg;0;0;;10000;;;;;;;;;0;29;China;5;Bachelor
27/11/2023;16:02:59;105;83;6;8;1PVIP_008_boat2.jpg;1;0;;6022;Brýcke;2198;4;935;3;697;3;1033;0;29;China;5;Bachelor
27/11/2023;16:02:59;105;84;6;60;1PVIP_120_toaster.jpg;1;0;;6460;Drachenboot;3225;3;914;4;933;4;1645;0;29;China;5;Bachelor
27/11/2023;16:02:59;105;85;6;30;1PVIP_030_lion1_gauss2.5.jpg;1;0;;6421;Eisbýr;45033;3;1275;3;783;3;1671;0;29;China;5;Bachelor
27/11/2023;16:02:59;105;86;6;25;1PVIP_025_hare.new_gauss2.jpg;0;0;;10000;;;;;;;;;0;29;China;5;Bachelor
27/11/2023;16:02:59;105;87;6;6;1PVIP_006_bike.jpg;1;3;;6241;Fahrradlager;6258;5;948;5;1093;5;1163;0;29;China;5;Bachelor
27/11/2023;16:02:59;105;88;6;63;2PVIP_057_bag.jpg;1;0;;6643;Schlitten;10259;4;1452;4;1177;4;1372;0;29;China;5;Bachelor
27/11/2023;16:02:59;105;89;6;35;1PVIP_035_orchid_gauss1.jpg;0;0;;10000;;;;;;;;;0;29;China;5;Bachelor
27/11/2023;16:02:59;105;90;6;9;1PVIP_009_railroad_gauss5.jpg;1;0;;5782;Hochgeschwindigkeits;4762;5;2525;5;734;5;1106;0;29;China;5;Bachelor
27/11/2023;16:02:59;105;91;6;109;2PVIP_104_piano.jpg;1;0;;3224;Segelboot;2663;4;1011;5;914;4;1213;0;29;China;5;Bachelor
27/11/2023;16:02:59;105;92;6;102;2PVIP_097_leopard7.jpg;0;0;;10000;;;;;;;;;0;29;China;5;Bachelor
27/11/2023;16:02:59;105;93;6;14;1PVIP_014_chipmunk_gauss2.jpg;0;0;;10000;;;;;;;;;0;29;China;5;Bachelor
27/11/2023;16:02:59;105;94;6;10;1PVIP_010_brain_gauss3.jpg;1;0;;4340;Giraffe;1679;4;813;4;1141;4;5643;0;29;China;5;Bachelor
27/11/2023;16:02:59;105;95;6;79;2PVIP_073_coffee_gauss5.jpg;0;0;;10000;;;;;;;;;0;29;China;5;Bachelor
27/11/2023;16:02:59;105;96;6;29;1PVIP_029_leopard3.jpg;0;0;;10000;;;;;;;;;0;29;China;5;Bachelor
27/11/2023;16:02:59;105;97;6;64;2PVIP_058_bagpipe_gauss6.jpg;0;0;;10000;;;;;;;;;0;29;China;5;Bachelor
27/11/2023;16:02:59;105;98;6;27;1PVIP_027_squirrel.new_gauss4.jpg;0;0;;10000;;;;;;;;;0;29;China;5;Bachelor
27/11/2023;16:02:59;105;99;6;94;2PVIP_089_hammer_gauss2.jpg;0;0;;10000;;;;;;;;;0;29;China;5;Bachelor
27/11/2023;16:02:59;105;100;6;119;2PVIP_114_wolf3.jpg;0;0;;10000;;;;;;;;;0;29;China;5;Bachelor
27/11/2023;16:02:59;105;101;6;18;1PVIP_018_dog3_gauss2.5.jpg;0;0;;10000;;;;;;;;;0;29;China;5;Bachelor
27/11/2023;16:02:59;105;102;6;96;2PVIP_091_horn.new_gauss3.jpg;0;0;;10000;;;;;;;;;0;29;China;5;Bachelor
27/11/2023;16:02:59;105;103;6;77;2PVIP_071_chair1_gauss3.jpg;0;0;;10000;;;;;;;;;0;29;China;5;Bachelor
27/11/2023;16:02:59;105;104;6;69;2PVIP_063_brick_gauss5.jpg;0;0;;10000;;;;;;;;;0;29;China;5;Bachelor
27/11/2023;16:02:59;105;105;6;118;2PVIP_113_whale.jpg;0;0;;10000;;;;;;;;;0;29;China;5;Bachelor
27/11/2023;16:02:59;105;106;6;57;1PVIP_117_pepper.jpg;0;0;;10000;;;;;;;;;0;29;China;5;Bachelor
27/11/2023;16:02:59;105;107;6;108;2PVIP_103_panda_gauss6.jpg;0;0;;10000;;;;;;;;;0;29;China;5;Bachelor
27/11/2023;16:02:59;105;108;6;93;2PVIP_088_gun.jpg;1;0;;4091;Schieýstand;37359;4;751;3;855;4;1340;0;29;China;5;Bachelor
27/11/2023;16:02:59;105;109;6;58;1PVIP_118_phone_gauss5.jpg;0;0;;10000;;;;;;;;;0;29;China;5;Bachelor
27/11/2023;16:02:59;105;110;6;98;2PVIP_093_kamel_gauss1.5.jpg;1;0;;9440;Hase;2109;3;847;4;837;3;1191;0;29;China;5;Bachelor
27/11/2023;16:02:59;105;111;6;95;2PVIP_090_hawk_gauss4.jpg;0;0;;10000;;;;;;;;;0;29;China;5;Bachelor
27/11/2023;16:02:59;105;112;6;75;2PVIP_069_cat2.jpg;0;0;;10000;;;;;;;;;0;29;China;5;Bachelor
27/11/2023;16:02:59;105;113;6;13;1PVIP_013_cat.new_gauss3.jpg;0;0;;10000;;;;;;;;;0;29;China;5;Bachelor
27/11/2023;16:02:59;105;114;6;85;2PVIP_079_drumset_gauss5.jpg;0;0;;10000;;;;;;;;;0;29;China;5;Bachelor
27/11/2023;16:02:59;105;115;6;17;1PVIP_017_deer2_gauss1.jpg;1;0;;7739;Dschungel;10228;4;503;2;779;3;1383;0;29;China;5;Bachelor
27/11/2023;16:02:59;105;116;6;81;2PVIP_075_chair3_gauss5.jpg;1;1;;4115;Stuhl;11888;5;406;5;973;5;1332;0;29;China;5;Bachelor
27/11/2023;16:02:59;105;117;6;82;2PVIP_076_computer.new_gauss5.jpg;0;0;;10000;;;;;;;;;0;29;China;5;Bachelor
27/11/2023;16:02:59;105;118;6;45;1PVIP_045_spider.new_gauss1.jpg;0;0;;10000;;;;;;;;;0;29;China;5;Bachelor
27/11/2023;16:02:59;105;119;6;55;1PVIP_082_erdbeere_gauss1.jpg;0;0;;10000;;;;;;;;;0;29;China;5;Bachelor
27/11/2023;16:02:59;105;120;6;59;1PVIP_119_sewingmachine.jpg;0;0;;10000;;;;;;;;;0;29;China;5;Bachelor
27/11/2023;16:02:59;105;121;6;41;1PVIP_041_rose.jpg;0;0;;10000;;;;;;;;;0;29;China;5;Bachelor
27/11/2023;16:02:59;105;122;6;28;1PVIP_028_knife.new_gauss1.5.jpg;1;0;;5107;Yacht;5060;4;1262;3;1011;4;1291;0;29;China;5;Bachelor
27/11/2023;16:02:59;105;123;6;48;1PVIP_048_tomb_gauss3.jpg;0;0;;10000;;;;;;;;;0;29;China;5;Bachelor
27/11/2023;16:02:59;105;124;6;34;1PVIP_034_octopus.new_gauss1.5.jpg;0;0;;10000;;;;;;;;;0;29;China;5;Bachelor
27/11/2023;16:02:59;105;125;6;106;2PVIP_101_orange.jpg;0;0;;10000;;;;;;;;;0;29;China;5;Bachelor
27/11/2023;16:02:59;105;126;6;16;1PVIP_016_crone_gauss1.5.jpg;1;0;;6468;Gewichtswaage;3044;3;1364;2;1429;4;997;0;29;China;5;Bachelor
27/11/2023;17:06:54;106;3;7;1;0PVIP_001_tank2bw_filt1_gauss3.jpg;0;0;;10000;;;;;;;;;1;23;Germany/Deutschland;5;Abitur
27/11/2023;17:06:54;106;5;7;1;0PVIP_002_pineapplebw_filt1_gauss3.jpg;0;0;;10000;ka;10107;2;3496;2;6658;2;5004;1;23;Germany/Deutschland;5;Abitur
27/11/2023;17:06:54;106;7;6;24;1PVIP_024_hamster2_gauss1.5.jpg;1;2;;3806;Meerschweinchen;16872;4;4153;2;5336;3;3754;1;23;Germany/Deutschland;5;Abitur
27/11/2023;17:06:54;106;8;6;118;2PVIP_113_whale.jpg;1;0;2;9304;Wasserfall;7646;2;2024;2;3757;2;2469;1;23;Germany/Deutschland;5;Abitur
27/11/2023;17:06:54;106;9;6;104;2PVIP_099_metro_gauss2.jpg;1;2;;1879;Ubahn;3156;4;3344;5;3647;5;3010;1;23;Germany/Deutschland;5;Abitur
27/11/2023;17:06:54;106;10;6;28;1PVIP_028_knife.new_gauss1.5.jpg;0;0;;10000;;;;;;;;;1;23;Germany/Deutschland;5;Abitur
27/11/2023;17:06:54;106;11;6;2;1PVIP_002_arrow_gauss2.jpg;0;0;;10000;;;;;;;;;1;23;Germany/Deutschland;5;Abitur
27/11/2023;17:06:54;106;12;6;85;2PVIP_079_drumset_gauss5.jpg;1;1;;4125;Schlagzeug;8286;3;5143;2;2573;4;1933;1;23;Germany/Deutschland;5;Abitur
27/11/2023;17:06:54;106;13;6;69;2PVIP_063_brick_gauss5.jpg;1;1;;8155;Mauer;8821;2;911;2;4882;2;2359;1;23;Germany/Deutschland;5;Abitur
27/11/2023;17:06:54;106;14;6;119;2PVIP_114_wolf3.jpg;1;2;;9853;Hund;4044;3;2608;2;2270;2;1843;1;23;Germany/Deutschland;5;Abitur
27/11/2023;17:06:54;106;15;6;66;2PVIP_060_bee2.jpg;0;0;;10000;;;;;;;;;1;23;Germany/Deutschland;5;Abitur
27/11/2023;17:06:54;106;16;6;20;1PVIP_020_fork.jpg;1;0;0;9404;Liegestuhl;7951;2;1767;3;3575;2;1333;1;23;Germany/Deutschland;5;Abitur
27/11/2023;17:06:54;106;17;6;61;2PVIP_055_affe_gauss4.jpg;0;0;;10000;;;;;;;;;1;23;Germany/Deutschland;5;Abitur
27/11/2023;17:06:54;106;18;6;83;2PVIP_077_cow3.jpg;0;0;;10000;;;;;;;;;1;23;Germany/Deutschland;5;Abitur
27/11/2023;17:06:54;106;19;6;113;2PVIP_108_shark1_gauss3.jpg;0;0;;10000;;;;;;;;;1;23;Germany/Deutschland;5;Abitur
27/11/2023;17:06:54;106;20;6;91;2PVIP_086_girl.jpg;1;3;0;9369;Maske;4922;2;27750;2;1603;2;2115;1;23;Germany/Deutschland;5;Abitur
27/11/2023;17:06:54;106;21;6;96;2PVIP_091_horn.new_gauss3.jpg;0;0;;10000;;;;;;;;;1;23;Germany/Deutschland;5;Abitur
27/11/2023;17:06:54;106;22;6;49;1PVIP_049_turtle_gauss4.jpg;0;0;;10000;;;;;;;;;1;23;Germany/Deutschland;5;Abitur
27/11/2023;17:06:54;106;23;6;68;2PVIP_062_book2_gauss3.5.jpg;1;0;0;8492;Schmetterling;12622;2;2228;2;2306;2;1914;1;23;Germany/Deutschland;5;Abitur
27/11/2023;17:06:54;106;24;6;110;2PVIP_105_puppy1_gauss3.jpg;0;0;;10000;;;;;;;;;1;23;Germany/Deutschland;5;Abitur
27/11/2023;17:06:54;106;25;6;22;1PVIP_022_frog2_gauss4.jpg;0;0;;10000;;;;;;;;;1;23;Germany/Deutschland;5;Abitur
27/11/2023;17:06:54;106;26;6;50;1PVIP_050_typewriter_gauss5.5.jpg;1;0;0;8661;Decke;4096;2;2600;2;3526;3;1468;1;23;Germany/Deutschland;5;Abitur
27/11/2023;17:06:54;106;27;6;79;2PVIP_073_coffee_gauss5.jpg;0;0;;10000;;;;;;;;;1;23;Germany/Deutschland;5;Abitur
27/11/2023;17:06:54;106;28;6;90;2PVIP_085_frog5.jpg;1;1;;7662;Frosch;3430;3;1768;2;3016;2;1902;1;23;Germany/Deutschland;5;Abitur
27/11/2023;17:06:54;106;29;6;31;1PVIP_031_lizard_gauss2.jpg;1;1;;9403;Eidechse;4457;4;2570;2;4937;4;3188;1;23;Germany/Deutschland;5;Abitur
27/11/2023;17:06:54;106;30;6;30;1PVIP_030_lion1_gauss2.5.jpg;1;1;;3475;Lýwe;4674;4;2316;5;1894;5;1422;1;23;Germany/Deutschland;5;Abitur
27/11/2023;17:06:54;106;31;6;41;1PVIP_041_rose.jpg;0;0;;10000;;;;;;;;;1;23;Germany/Deutschland;5;Abitur
27/11/2023;17:06:54;106;32;6;23;1PVIP_023_geese_gauss3.jpg;0;0;;10000;;;;;;;;;1;23;Germany/Deutschland;5;Abitur
27/11/2023;17:06:54;106;33;6;53;1PVIP_053_watch2.jpg;1;0;0;8797;Gullideckel;7574;2;1884;2;3783;2;1439;1;23;Germany/Deutschland;5;Abitur
27/11/2023;17:06:54;106;34;6;75;2PVIP_069_cat2.jpg;0;0;;10000;;;;;;;;;1;23;Germany/Deutschland;5;Abitur
27/11/2023;17:06:54;106;35;6;57;1PVIP_117_pepper.jpg;1;1;;3190;Paprika;5853;4;4557;4;3724;4;2524;1;23;Germany/Deutschland;5;Abitur
27/11/2023;17:06:54;106;36;6;12;1PVIP_012_cabin2.jpg;1;1;;3166;Hýtte;4506;4;3486;5;2152;5;1557;1;23;Germany/Deutschland;5;Abitur
27/11/2023;17:06:54;106;37;6;117;2PVIP_112_watch.jpg;0;0;;10000;;;;;;;;;1;23;Germany/Deutschland;5;Abitur
27/11/2023;17:06:54;106;38;6;62;2PVIP_056_baby3_gauss5.jpg;0;0;;10000;;;;;;;;;1;23;Germany/Deutschland;5;Abitur
27/11/2023;17:06:54;106;39;6;88;2PVIP_083_eye.new_gauss2.jpg;1;0;0;9420;Perrýcke;5756;2;1988;2;1003;2;2548;1;23;Germany/Deutschland;5;Abitur
27/11/2023;17:06:54;106;40;6;34;1PVIP_034_octopus.new_gauss1.5.jpg;0;0;;10000;;;;;;;;;1;23;Germany/Deutschland;5;Abitur
27/11/2023;17:06:54;106;41;6;7;1PVIP_007_bird3.jpg;0;0;;10000;;;;;;;;;1;23;Germany/Deutschland;5;Abitur
27/11/2023;17:06:54;106;42;6;64;2PVIP_058_bagpipe_gauss6.jpg;0;0;;10000;;;;;;;;;1;23;Germany/Deutschland;5;Abitur
27/11/2023;17:06:54;106;43;6;80;2PVIP_074_computer.jpg;1;0;0;9249;Kamin;3547;2;2165;2;1285;2;2832;1;23;Germany/Deutschland;5;Abitur
27/11/2023;17:06:54;106;44;6;71;2PVIP_065_bulldog5_gauss3.jpg;1;1;;5562;Hund;8161;4;3767;4;3093;5;3951;1;23;Germany/Deutschland;5;Abitur
27/11/2023;17:06:54;106;45;6;44;1PVIP_044_snake_gauss1.5.jpg;0;0;;10000;;;;;;;;;1;23;Germany/Deutschland;5;Abitur
27/11/2023;17:06:54;106;46;6;84;2PVIP_078_crocodile2_gauss2.jpg;0;0;;10000;;;;;;;;;1;23;Germany/Deutschland;5;Abitur
27/11/2023;17:06:54;106;47;6;51;1PVIP_051_wheat_gauss1.5.jpg;1;1;0;8830;Getreide;6934;2;2879;2;4098;2;2126;1;23;Germany/Deutschland;5;Abitur
27/11/2023;17:06:54;106;48;6;65;2PVIP_059_bear.new_gauss4.jpg;0;0;;10000;;;;;;;;;1;23;Germany/Deutschland;5;Abitur
27/11/2023;17:06:54;106;49;6;5;1PVIP_005_bell_gauss1.5.jpg;0;0;;10000;;;;;;;;;1;23;Germany/Deutschland;5;Abitur
27/11/2023;17:06:54;106;50;6;72;2PVIP_066_burro1_gauss3.jpg;0;0;;10000;;;;;;;;;1;23;Germany/Deutschland;5;Abitur
27/11/2023;17:06:54;106;51;6;6;1PVIP_006_bike.jpg;1;3;2;6442;Fahrradwerkstatt;7328;4;1705;5;2476;4;6123;1;23;Germany/Deutschland;5;Abitur
27/11/2023;17:06:54;106;52;6;97;2PVIP_092_jet1_gauss5.jpg;0;0;;10000;;;;;;;;;1;23;Germany/Deutschland;5;Abitur
27/11/2023;17:06:54;106;53;6;63;2PVIP_057_bag.jpg;0;0;;10000;;;;;;;;;1;23;Germany/Deutschland;5;Abitur
27/11/2023;17:06:54;106;54;6;87;2PVIP_081_elephant2_gauss2.jpg;1;0;0;8416;Steine;12119;2;1441;2;5135;2;1377;1;23;Germany/Deutschland;5;Abitur
27/11/2023;17:06:54;106;55;6;21;1PVIP_021_fox1_gauss1.jpg;0;0;;10000;;;;;;;;;1;23;Germany/Deutschland;5;Abitur
27/11/2023;17:06:54;106;56;6;11;1PVIP_011_butterfly2.jpg;1;0;1;6589;Kýfer;3631;3;910;3;657;2;1240;1;23;Germany/Deutschland;5;Abitur
27/11/2023;17:06:54;106;57;6;1;1PVIP_001_accordi2_gauss4.jpg;1;1;;2156;Akkordeon;5067;4;2111;5;802;5;1292;1;23;Germany/Deutschland;5;Abitur
27/11/2023;17:06:54;106;58;6;77;2PVIP_071_chair1_gauss3.jpg;1;2;;3692;Sessel;4282;4;2027;5;5505;5;1438;1;23;Germany/Deutschland;5;Abitur
27/11/2023;17:06:54;106;59;6;35;1PVIP_035_orchid_gauss1.jpg;1;2;;9004;Blýte;3900;3;1730;2;1620;3;2229;1;23;Germany/Deutschland;5;Abitur
27/11/2023;17:06:54;106;60;6;112;2PVIP_107_scorpion_gauss8.jpg;1;0;2;7149;Elefant;4079;3;2483;3;1574;4;2130;1;23;Germany/Deutschland;5;Abitur
27/11/2023;17:06:54;106;61;6;52;1PVIP_052_wolf2.jpg;0;0;;10000;;;;;;;;;1;23;Germany/Deutschland;5;Abitur
27/11/2023;17:06:54;106;62;6;70;2PVIP_064_bridge_gauss2.5.jpg;0;0;;10000;;;;;;;;;1;23;Germany/Deutschland;5;Abitur
27/11/2023;17:06:54;106;63;6;76;2PVIP_070_cauliflower.new_gauss3.jpg;0;0;;10000;;;;;;;;;1;23;Germany/Deutschland;5;Abitur
27/11/2023;17:06:54;106;64;6;100;2PVIP_095_knob_gauss1.jpg;0;0;;10000;;;;;;;;;1;23;Germany/Deutschland;5;Abitur
27/11/2023;17:06:54;106;65;6;107;2PVIP_102_owl_gauss4.jpg;1;0;0;7565;Gesicht;13990;2;1399;2;1814;2;1217;1;23;Germany/Deutschland;5;Abitur
27/11/2023;17:06:54;106;66;6;55;1PVIP_082_erdbeere_gauss1.jpg;1;1;;5467;Erdbeeren;7751;4;2219;5;2232;4;2004;1;23;Germany/Deutschland;5;Abitur
27/11/2023;17:06:54;106;67;6;108;2PVIP_103_panda_gauss6.jpg;0;0;;10000;;;;;;;;;1;23;Germany/Deutschland;5;Abitur
27/11/2023;17:06:54;106;68;6;73;2PVIP_067_carafe2.jpg;0;0;;10000;;;;;;;;;1;23;Germany/Deutschland;5;Abitur
27/11/2023;17:06:54;106;69;6;106;2PVIP_101_orange.jpg;1;1;;4196;Orangen;3952;4;1960;3;1409;4;2369;1;23;Germany/Deutschland;5;Abitur
27/11/2023;17:06:54;106;70;6;39;1PVIP_039_rat_gauss1.jpg;1;1;;4959;Ratte;3128;4;1785;3;1432;5;1469;1;23;Germany/Deutschland;5;Abitur
27/11/2023;17:06:54;106;71;6;98;2PVIP_093_kamel_gauss1.5.jpg;1;1;;4200;Kamel;3688;4;1740;4;3117;5;1989;1;23;Germany/Deutschland;5;Abitur
27/11/2023;17:06:54;106;72;6;40;1PVIP_040_robbe_gauss3.jpg;1;3;;5634;Katze;3965;3;1953;2;2473;4;1860;1;23;Germany/Deutschland;5;Abitur
27/11/2023;17:06:54;106;73;6;116;2PVIP_111_snake3.jpg;1;1;;7755;Schlange;4591;2;866;2;839;2;1111;1;23;Germany/Deutschland;5;Abitur
27/11/2023;17:06:54;106;74;6;38;1PVIP_038_python2_gauss2.jpg;0;0;;10000;;;;;;;;;1;23;Germany/Deutschland;5;Abitur
27/11/2023;17:06:54;106;75;6;115;2PVIP_110_ski.new_gauss1.jpg;0;0;;10000;;;;;;;;;1;23;Germany/Deutschland;5;Abitur
27/11/2023;17:06:54;106;76;6;8;1PVIP_008_boat2.jpg;1;0;0;6942;Flýgel;5610;2;2686;2;600;2;1691;1;23;Germany/Deutschland;5;Abitur
27/11/2023;17:06:54;106;77;6;9;1PVIP_009_railroad_gauss5.jpg;1;1;;5860;Zug;4523;4;4193;3;1902;4;2094;1;23;Germany/Deutschland;5;Abitur
27/11/2023;17:06:54;106;78;6;16;1PVIP_016_crone_gauss1.5.jpg;1;0;0;9667;See;19208;2;8024;2;1033;2;4737;1;23;Germany/Deutschland;5;Abitur
27/11/2023;17:06:54;106;79;6;99;2PVIP_094_kettle2_gauss3.jpg;0;0;;10000;;;;;;;;;1;23;Germany/Deutschland;5;Abitur
27/11/2023;17:06:54;106;80;6;120;2PVIP_115_woman.jpg;0;0;;10000;;;;;;;;;1;23;Germany/Deutschland;5;Abitur
27/11/2023;17:06:54;106;81;6;58;1PVIP_118_phone_gauss5.jpg;0;0;;10000;;;;;;;;;1;23;Germany/Deutschland;5;Abitur
27/11/2023;17:06:54;106;82;6;15;1PVIP_015_crocodile1_gauss2.5.jpg;0;0;;10000;;;;;;;;;1;23;Germany/Deutschland;5;Abitur
27/11/2023;17:06:54;106;83;6;25;1PVIP_025_hare.new_gauss2.jpg;0;0;;10000;;;;;;;;;1;23;Germany/Deutschland;5;Abitur
27/11/2023;17:06:54;106;84;6;95;2PVIP_090_hawk_gauss4.jpg;0;0;;10000;;;;;;;;;1;23;Germany/Deutschland;5;Abitur
27/11/2023;17:06:54;106;85;6;48;1PVIP_048_tomb_gauss3.jpg;0;0;;10000;;;;;;;;;1;23;Germany/Deutschland;5;Abitur
27/11/2023;17:06:54;106;86;6;37;1PVIP_037_pfau_gauss3.jpg;1;0;1;4412;Strauý;6484;4;1834;5;1495;5;1920;1;23;Germany/Deutschland;5;Abitur
27/11/2023;17:06:54;106;87;6;105;2PVIP_100_mirror_gauss4.jpg;1;1;;4140;Spiegel;3967;3;2162;4;3026;3;2395;1;23;Germany/Deutschland;5;Abitur
27/11/2023;17:06:54;106;88;6;29;1PVIP_029_leopard3.jpg;1;2;;8030;Tieger;2568;2;1236;4;3417;2;1663;1;23;Germany/Deutschland;5;Abitur
27/11/2023;17:06:54;106;89;6;3;1PVIP_003_beehive_gauss2.jpg;0;0;;10000;;;;;;;;;1;23;Germany/Deutschland;5;Abitur
27/11/2023;17:06:54;106;90;6;13;1PVIP_013_cat.new_gauss3.jpg;0;0;;10000;;;;;;;;;1;23;Germany/Deutschland;5;Abitur
27/11/2023;17:06:54;106;91;6;67;2PVIP_061_boat_gauss3.jpg;1;1;;6217;Boot;2756;2;3206;4;2363;3;1732;1;23;Germany/Deutschland;5;Abitur
27/11/2023;17:06:54;106;92;6;36;1PVIP_036_pen2.jpg;1;0;0;9620;Hafen;2282;2;1645;5;2386;2;1156;1;23;Germany/Deutschland;5;Abitur
27/11/2023;17:06:54;106;93;6;94;2PVIP_089_hammer_gauss2.jpg;0;0;;10000;;;;;;;;;1;23;Germany/Deutschland;5;Abitur
27/11/2023;17:06:54;106;94;6;46;1PVIP_046_tiger_gauss2.5.jpg;1;1;;5026;Tieger;2832;3;2473;5;1708;4;3037;1;23;Germany/Deutschland;5;Abitur
27/11/2023;17:06:54;106;95;6;54;1PVIP_054_toilet_gauss5.jpg;0;0;;10000;;;;;;;;;1;23;Germany/Deutschland;5;Abitur
27/11/2023;17:06:54;106;96;6;103;2PVIP_098_lion2.jpg;0;0;;10000;;;;;;;;;1;23;Germany/Deutschland;5;Abitur
27/11/2023;17:06:54;106;97;6;14;1PVIP_014_chipmunk_gauss2.jpg;0;0;;10000;;;;;;;;;1;23;Germany/Deutschland;5;Abitur
27/11/2023;17:06:54;106;98;6;59;1PVIP_119_sewingmachine.jpg;0;0;;10000;;;;;;;;;1;23;Germany/Deutschland;5;Abitur
27/11/2023;17:06:54;106;99;6;10;1PVIP_010_brain_gauss3.jpg;0;0;;10000;;;;;;;;;1;23;Germany/Deutschland;5;Abitur
27/11/2023;17:06:54;106;100;6;102;2PVIP_097_leopard7.jpg;1;2;;4678;Jaguar;2606;4;6165;5;1491;4;3983;1;23;Germany/Deutschland;5;Abitur
27/11/2023;17:06:54;106;101;6;60;1PVIP_120_toaster.jpg;1;1;;8772;Toaster;3826;5;3315;5;1844;5;1879;1;23;Germany/Deutschland;5;Abitur
27/11/2023;17:06:54;106;102;6;92;2PVIP_087_goat_gauss5.jpg;0;0;;10000;;;;;;;;;1;23;Germany/Deutschland;5;Abitur
27/11/2023;17:06:54;106;103;6;56;1PVIP_116_otter.jpg;1;2;;8603;Bieber;24659;2;4283;2;6582;2;8277;1;23;Germany/Deutschland;5;Abitur
27/11/2023;17:06:54;106;104;6;33;1PVIP_033_nashorn_gauss2.jpg;0;0;;10000;;;;;;;;;1;23;Germany/Deutschland;5;Abitur
27/11/2023;17:06:54;106;105;6;17;1PVIP_017_deer2_gauss1.jpg;1;0;2;9578;Schmetterling;12288;2;469;2;457;2;1164;1;23;Germany/Deutschland;5;Abitur
27/11/2023;17:06:54;106;106;6;47;1PVIP_047_toad2_gauss1.jpg;1;1;;1467;Krýte;4373;4;1488;5;3131;5;1559;1;23;Germany/Deutschland;5;Abitur
27/11/2023;17:06:54;106;107;6;42;1PVIP_042_sheep1_gauss2.5.jpg;0;0;;10000;;;;;;;;;1;23;Germany/Deutschland;5;Abitur
27/11/2023;17:06:54;106;108;6;81;2PVIP_075_chair3_gauss5.jpg;1;1;;5704;Stuhl;2928;3;1733;2;1191;4;2232;1;23;Germany/Deutschland;5;Abitur
27/11/2023;17:06:54;106;109;6;111;2PVIP_106_saxophone1_gauss3.jpg;0;0;;10000;;;;;;;;;1;23;Germany/Deutschland;5;Abitur
27/11/2023;17:06:54;106;110;6;74;2PVIP_068_carafe3.jpg;1;1;;7037;Kanne;3047;4;3788;3;1098;4;2023;1;23;Germany/Deutschland;5;Abitur
27/11/2023;17:06:54;106;111;6;32;1PVIP_032_mountain_gauss3.5.jpg;0;0;;10000;;;;;;;;;1;23;Germany/Deutschland;5;Abitur
27/11/2023;17:06:54;106;112;6;93;2PVIP_088_gun.jpg;1;0;0;9968;Flur;3484;4;1159;2;1088;2;2434;1;23;Germany/Deutschland;5;Abitur
27/11/2023;17:06:54;106;113;6;109;2PVIP_104_piano.jpg;1;1;;3262;Klavier;3875;5;1353;4;1978;5;785;1;23;Germany/Deutschland;5;Abitur
27/11/2023;17:06:54;106;114;6;45;1PVIP_045_spider.new_gauss1.jpg;1;1;;6245;Spinne;2991;3;3813;2;2274;4;2398;1;23;Germany/Deutschland;5;Abitur
27/11/2023;17:06:54;106;115;6;101;2PVIP_096_lamb_gauss3.jpg;0;0;;10000;;;;;;;;;1;23;Germany/Deutschland;5;Abitur
27/11/2023;17:06:54;106;116;6;26;1PVIP_026_hedgehog.new_gauss2.jpg;1;1;;1546;Igel;2906;4;1100;4;2135;5;1155;1;23;Germany/Deutschland;5;Abitur
27/11/2023;17:06:54;106;117;6;82;2PVIP_076_computer.new_gauss5.jpg;1;0;0;8660;Buch;2134;3;2241;3;1981;4;2027;1;23;Germany/Deutschland;5;Abitur
27/11/2023;17:06:54;106;118;6;78;2PVIP_072_cigarette_gauss3.jpg;0;0;;10000;;;;;;;;;1;23;Germany/Deutschland;5;Abitur
27/11/2023;17:06:54;106;119;6;27;1PVIP_027_squirrel.new_gauss4.jpg;0;0;;10000;;;;;;;;;1;23;Germany/Deutschland;5;Abitur
27/11/2023;17:06:54;106;120;6;86;2PVIP_080_ear_gauss2.jpg;0;0;;10000;;;;;;;;;1;23;Germany/Deutschland;5;Abitur
27/11/2023;17:06:54;106;121;6;4;1PVIP_004_beetle1_gauss2.5.jpg;0;0;;10000;;;;;;;;;1;23;Germany/Deutschland;5;Abitur
